elevator_id,ts_ms,ts,data_ts_ms,data_age_ms,is_new_frame,Ax,Ay,Az,Gx,Gy,Gz,vx,vy,vz,ax,ay,az,t,sx,sy,sz,fx,fy,fz,A_mag,G_mag
elevator-001,1773305991136,2026-03-12 16:59:51.136,1773305991127,9,1,0.017578125,-0.009765625,-0.96923828125,-0.18310546875,0.732421875,0.732421875,0,0,0,0.0,0.0,0.0,25.69,,,,,,,0.9694468545261314,1.0518608361580863
elevator-001,1773305991158,2026-03-12 16:59:51.158,1773305991153,5,1,0.01806640625,-0.01416015625,-0.96875,-0.18310546875,0.732421875,0.67138671875,0,0,0,0.0,0.0,0.0,25.75,,,,,,,0.9690219128377926,1.0103116062772735
elevator-001,1773305991180,2026-03-12 16:59:51.180,1773305991178,2,1,0.02392578125,-0.01025390625,-0.974609375,-0.3662109375,0.732421875,0.732421875,0,0,0,0.0,0.0,0.0,25.88,,,,,,,0.9749569320947963,1.0986328125
elevator-001,1773305991212,2026-03-12 16:59:51.212,1773305991203,9,1,0.02001953125,-0.013671875,-0.970703125,-0.30517578125,0.8544921875,0.732421875,0,0,0,0.0,0.0,0.0,25.88,,,,,,,0.9710057974503813,1.1660750228602783
elevator-001,1773305991235,2026-03-12 16:59:51.235,1773305991228,7,1,0.01904296875,-0.01318359375,-0.96875,-0.30517578125,0.67138671875,0.67138671875,0,0,0,0.0,0.0,0.0,25.82,,,,,,,0.9690268336341252,0.9973226707988398
elevator-001,1773305991257,2026-03-12 16:59:51.257,1773305991253,4,1,0.01806640625,-0.01611328125,-0.9736328125,-0.06103515625,0.67138671875,0.732421875,0,0,0,0.0,0.0,0.0,25.82,,,,,,,0.9739337176851882,0.9954532733337458
elevator-001,1773305991279,2026-03-12 16:59:51.279,1773305991279,0,1,0.017578125,-0.01513671875,-0.97265625,-0.18310546875,0.732421875,0.67138671875,0,0,0,0.0,0.0,0.0,25.75,,,,,,,0.9729328298485435,1.0103116062772735
elevator-001,1773305991312,2026-03-12 16:59:51.312,1773305991303,9,1,0.01953125,-0.01318359375,-0.97314453125,-0.30517578125,0.732421875,0.67138671875,0,0,0,0.0,0.0,0.0,25.75,,,,,,,0.9734297897498873,1.0393912576859377
elevator-001,1773305991335,2026-03-12 16:59:51.335,1773305991328,7,1,0.017578125,-0.01318359375,-0.97216796875,-0.1220703125,0.732421875,0.732421875,0,0,0,0.0,0.0,0.0,25.88,,,,,,,0.9724162468234381,1.0429692071920815
elevator-001,1773305991358,2026-03-12 16:59:51.358,1773305991354,4,1,0.017578125,-0.0166015625,-0.97216796875,-0.18310546875,0.67138671875,0.79345703125,0,0,0,0.0,0.0,0.0,25.88,,,,,,,0.9724685916879053,1.055396512804601
elevator-001,1773305991380,2026-03-12 16:59:51.380,1773305991378,2,1,0.017578125,-0.01318359375,-0.97216796875,-0.18310546875,0.67138671875,0.732421875,0,0,0,0.0,0.0,0.0,25.75,,,,,,,0.9724162468234381,1.0103116062772735
elevator-001,1773305991413,2026-03-12 16:59:51.413,1773305991404,9,1,0.02001953125,-0.0107421875,-0.9716796875,-0.18310546875,0.6103515625,0.732421875,0,0,0,0.0,0.0,0.0,25.82,,,,,,,0.971945261485364,0.9708235913444132
elevator-001,1773305991435,2026-03-12 16:59:51.435,1773305991428,7,1,0.0205078125,-0.01416015625,-0.97216796875,-0.06103515625,0.79345703125,0.8544921875,0,0,0,0.0,0.0,0.0,25.69,,,,,,,0.9724873468904676,1.167671293317199
elevator-001,1773305991457,2026-03-12 16:59:51.457,1773305991454,3,1,0.01806640625,-0.01318359375,-0.9736328125,-0.18310546875,0.67138671875,0.67138671875,0,0,0,0.0,0.0,0.0,25.82,,,,,,,0.9738896527613461,0.9669787303317176
elevator-001,1773305991480,2026-03-12 16:59:51.480,1773305991480,0,1,0.01904296875,-0.01025390625,-0.96826171875,-0.18310546875,0.67138671875,0.79345703125,0,0,0,0.0,0.0,0.0,25.75,,,,,,,0.9685032437988534,1.055396512804601
elevator-001,1773305991506,2026-03-12 16:59:51.506,1773305991503,3,1,0.0205078125,-0.013671875,-0.9716796875,-0.18310546875,0.732421875,0.8544921875,0,0,0,0.0,0.0,0.0,25.63,,,,,,,0.9719922353803288,1.1402308161785526
elevator-001,1773305991529,2026-03-12 16:59:51.529,1773305991528,1,1,0.01806640625,-0.0126953125,-0.97509765625,-0.1220703125,0.8544921875,0.67138671875,0,0,0,0.0,0.0,0.0,25.69,,,,,,,0.9753476330101518,1.0935347208965402
elevator-001,1773305991562,2026-03-12 16:59:51.562,1773305991553,9,1,0.0166015625,-0.01513671875,-0.97265625,-0.3662109375,0.67138671875,0.67138671875,0,0,0,0.0,0.0,0.0,25.75,,,,,,,0.9729156760973792,1.0176594238606609
elevator-001,1773305991584,2026-03-12 16:59:51.584,1773305991578,6,1,0.017578125,-0.01220703125,-0.96923828125,-0.18310546875,0.54931640625,0.6103515625,0,0,0,0.0,0.0,0.0,25.69,,,,,,,0.9694745215480952,0.8413115693414442
elevator-001,1773305991607,2026-03-12 16:59:51.607,1773305991604,3,1,0.01806640625,-0.01513671875,-0.96923828125,-0.18310546875,0.54931640625,0.79345703125,0,0,0,0.0,0.0,0.0,26.0,,,,,,,0.9695248120237876,0.9822678796039478
elevator-001,1773305991630,2026-03-12 16:59:51.630,1773305991629,1,1,0.0166015625,-0.013671875,-0.97021484375,-0.42724609375,0.732421875,0.8544921875,0,0,0,0.0,0.0,0.0,25.88,,,,,,,0.970453180259766,1.2038014479563
elevator-001,1773305991663,2026-03-12 16:59:51.663,1773305991653,10,1,0.01953125,-0.015625,-0.9736328125,-0.18310546875,0.8544921875,0.67138671875,0,0,0,0.0,0.0,0.0,25.69,,,,,,,0.9739540358395886,1.1020184378215203
elevator-001,1773305991685,2026-03-12 16:59:51.685,1773305991678,7,1,0.0166015625,-0.0107421875,-0.97021484375,-0.30517578125,0.732421875,0.79345703125,0,0,0,0.0,0.0,0.0,25.5,,,,,,,0.9704163279245478,1.1221176947540428
elevator-001,1773305991708,2026-03-12 16:59:51.708,1773305991703,5,1,0.017578125,-0.01123046875,-0.97216796875,-0.18310546875,0.732421875,0.67138671875,0,0,0,0.0,0.0,0.0,25.69,,,,,,,0.9723917283535279,1.0103116062772735
elevator-001,1773305991730,2026-03-12 16:59:51.730,1773305991728,2,1,0.01904296875,-0.01220703125,-0.9697265625,-0.3662109375,0.6103515625,0.91552734375,0,0,0,0.0,0.0,0.0,25.69,,,,,,,0.9699903361832108,1.15966796875
elevator-001,1773305991764,2026-03-12 16:59:51.764,1773305991754,10,1,0.01806640625,-0.01220703125,-0.970703125,-0.1220703125,0.732421875,0.8544921875,0,0,0,0.0,0.0,0.0,25.82,,,,,,,0.9709479715883309,1.1320335077509405
elevator-001,1773305991786,2026-03-12 16:59:51.786,1773305991778,8,1,0.0185546875,-0.01318359375,-0.970703125,-0.244140625,0.9765625,0.67138671875,0,0,0,0.0,0.0,0.0,25.82,,,,,,,0.9709699482770583,1.2099748291991583
elevator-001,1773305991809,2026-03-12 16:59:51.809,1773305991803,6,1,0.01806640625,-0.01318359375,-0.97509765625,-0.244140625,0.732421875,0.732421875,0,0,0,0.0,0.0,0.0,25.88,,,,,,,0.9753541107737221,1.0641843123878598
elevator-001,1773305991831,2026-03-12 16:59:51.831,1773305991829,2,1,0.01806640625,-0.0146484375,-0.96875,-0.30517578125,0.732421875,0.67138671875,0,0,0,0.0,0.0,0.0,25.75,,,,,,,0.9690291710036295,1.0393912576859377
elevator-001,1773305991854,2026-03-12 16:59:51.854,1773305991853,1,1,0.02001953125,-0.01318359375,-0.97021484375,-0.1220703125,0.54931640625,0.6103515625,0,0,0,0.0,0.0,0.0,25.88,,,,,,,0.9705109127714493,0.8301678777304348
elevator-001,1773305991887,2026-03-12 16:59:51.887,1773305991879,8,1,0.017578125,-0.013671875,-0.97314453125,-0.244140625,0.67138671875,0.79345703125,0,0,0,0.0,0.0,0.0,25.75,,,,,,,0.9733992959450471,1.0676791799643495
elevator-001,1773305991910,2026-03-12 16:59:51.910,1773305991904,6,1,0.02001953125,-0.01416015625,-0.9716796875,-0.244140625,0.79345703125,0.8544921875,0,0,0,0.0,0.0,0.0,25.75,,,,,,,0.9719890466237733,1.1913587216762167
elevator-001,1773305991932,2026-03-12 16:59:51.932,1773305991929,3,1,0.01953125,-0.01123046875,-0.97216796875,-0.244140625,0.732421875,0.732421875,0,0,0,0.0,0.0,0.0,25.75,,,,,,,0.9724289961834788,1.0641843123878598
elevator-001,1773305991954,2026-03-12 16:59:51.954,1773305991953,1,1,0.0185546875,-0.01416015625,-0.97314453125,-0.1220703125,0.67138671875,0.67138671875,0,0,0,0.0,0.0,0.0,25.63,,,,,,,0.9734244013558676,0.9572990198582838
elevator-001,1773305991987,2026-03-12 16:59:51.987,1773305991979,8,1,0.01806640625,-0.01220703125,-0.97119140625,-0.244140625,0.6103515625,0.732421875,0,0,0,0.0,0.0,0.0,25.69,,,,,,,0.971436129769004,0.9841623227903503
elevator-001,1773305992009,2026-03-12 16:59:52.009,1773305992003,6,1,0.01806640625,-0.01220703125,-0.96826171875,-0.244140625,0.67138671875,0.8544921875,0,0,0,0.0,0.0,0.0,25.56,,,,,,,0.9685071825461248,1.1137870844051916
elevator-001,1773305992031,2026-03-12 16:59:52.031,1773305992028,3,1,0.01953125,-0.01171875,-0.97216796875,-0.244140625,0.79345703125,0.79345703125,0,0,0,0.0,0.0,0.0,25.69,,,,,,,0.9724347578586575,1.1483696119523181
elevator-001,1773305992053,2026-03-12 16:59:52.053,1773305992053,0,1,0.01904296875,-0.0126953125,-0.9736328125,-0.42724609375,0.79345703125,0.79345703125,0,0,0,0.0,0.0,0.0,25.88,,,,,,,0.9739017708141547,1.200702854791626
elevator-001,1773305992085,2026-03-12 16:59:52.085,1773305992078,7,1,0.0185546875,-0.01171875,-0.97265625,-0.30517578125,0.8544921875,0.79345703125,0,0,0,0.0,0.0,0.0,25.69,,,,,,,0.9729037908209874,1.2053477574543152
elevator-001,1773305992107,2026-03-12 16:59:52.107,1773305992104,3,1,0.017578125,-0.0166015625,-0.9716796875,-0.30517578125,0.732421875,0.79345703125,0,0,0,0.0,0.0,0.0,26.0,,,,,,,0.9719804614579732,1.1221176947540428
elevator-001,1773305992129,2026-03-12 16:59:52.129,1773305992128,1,1,0.01806640625,-0.01025390625,-0.97265625,-0.1220703125,0.732421875,0.79345703125,0,0,0,0.0,0.0,0.0,25.88,,,,,,,0.9728780593127981,1.0867000619363316
elevator-001,1773305992162,2026-03-12 16:59:52.162,1773305992153,9,1,0.01708984375,-0.01171875,-0.97119140625,0.0,0.732421875,0.79345703125,0,0,0,0.0,0.0,0.0,25.88,,,,,,,0.9714124455836535,1.079822144345345
elevator-001,1773305992183,2026-03-12 16:59:52.183,1773305992179,4,1,0.02001953125,-0.01171875,-0.97021484375,-0.18310546875,0.67138671875,0.732421875,0,0,0,0.0,0.0,0.0,25.63,,,,,,,0.9704921193733976,1.0103116062772735
elevator-001,1773305992206,2026-03-12 16:59:52.206,1773305992203,3,1,0.01953125,-0.0146484375,-0.9716796875,-0.1220703125,0.79345703125,0.732421875,0,0,0,0.0,0.0,0.0,25.82,,,,,,,0.9719863484369786,1.0867000619363316
elevator-001,1773305992228,2026-03-12 16:59:52.228,1773305992228,0,1,0.0185546875,-0.01220703125,-0.97216796875,-0.3662109375,0.8544921875,0.79345703125,0,0,0,0.0,0.0,0.0,25.69,,,,,,,0.9724216408038553,1.222228051422167
elevator-001,1773305992261,2026-03-12 16:59:52.261,1773305992254,7,1,0.01904296875,-0.01416015625,-0.97119140625,-0.244140625,0.54931640625,0.54931640625,0,0,0,0.0,0.0,0.0,25.75,,,,,,,0.9714812876518468,0.8143105507889608
elevator-001,1773305992284,2026-03-12 16:59:52.284,1773305992278,6,1,0.01708984375,-0.00927734375,-0.97216796875,-0.244140625,0.79345703125,0.67138671875,0,0,0,0.0,0.0,0.0,25.75,,,,,,,0.9723624279711531,1.0676791799643495
elevator-001,1773305992307,2026-03-12 16:59:52.307,1773305992303,4,1,0.0185546875,-0.01416015625,-0.97021484375,-0.30517578125,0.67138671875,0.732421875,0,0,0,0.0,0.0,0.0,25.69,,,,,,,0.9704955587152803,1.0393912576859377
elevator-001,1773305992330,2026-03-12 16:59:52.330,1773305992328,2,1,0.017578125,-0.01318359375,-0.97119140625,-0.30517578125,0.8544921875,0.732421875,0,0,0,0.0,0.0,0.0,25.75,,,,,,,0.9714399339107556,1.1660750228602783
elevator-001,1773305992363,2026-03-12 16:59:52.363,1773305992353,10,1,0.01904296875,-0.0126953125,-0.970703125,-0.244140625,0.8544921875,0.8544921875,0,0,0,0.0,0.0,0.0,25.63,,,,,,,0.9709728948343779,1.232849723921152
elevator-001,1773305992385,2026-03-12 16:59:52.385,1773305992379,6,1,0.01904296875,-0.01123046875,-0.970703125,-0.244140625,0.8544921875,0.79345703125,0,0,0,0.0,0.0,0.0,25.69,,,,,,,0.9709548470304497,1.1913587216762167
elevator-001,1773305992407,2026-03-12 16:59:52.407,1773305992403,4,1,0.02001953125,-0.01708984375,-0.97314453125,-0.18310546875,0.732421875,0.79345703125,0,0,0,0.0,0.0,0.0,25.88,,,,,,,0.9735004484296098,1.0952367214920875
elevator-001,1773305992430,2026-03-12 16:59:52.430,1773305992428,2,1,0.01806640625,-0.01171875,-0.97216796875,-0.1220703125,0.67138671875,0.732421875,0,0,0,0.0,0.0,0.0,25.82,,,,,,,0.9724064395096598,1.0010509928501419
elevator-001,1773305992462,2026-03-12 16:59:52.462,1773305992454,8,1,0.01806640625,-0.01611328125,-0.97216796875,-0.1220703125,0.732421875,0.67138671875,0,0,0,0.0,0.0,0.0,25.88,,,,,,,0.9724693271928594,1.0010509928501419
elevator-001,1773305992484,2026-03-12 16:59:52.484,1773305992478,6,1,0.01904296875,-0.0107421875,-0.9716796875,-0.18310546875,0.79345703125,0.67138671875,0,0,0,0.0,0.0,0.0,25.63,,,,,,,0.9719256372537954,1.055396512804601
elevator-001,1773305992507,2026-03-12 16:59:52.507,1773305992504,3,1,0.0205078125,-0.013671875,-0.97021484375,0.0,0.79345703125,0.67138671875,0,0,0,0.0,0.0,0.0,25.75,,,,,,,0.970527863367347,1.0393912576859377
elevator-001,1773305992531,2026-03-12 16:59:52.531,1773305992529,2,1,0.01220703125,-0.0126953125,-0.9755859375,-0.06103515625,0.732421875,0.732421875,0,0,0,0.0,0.0,0.0,25.63,,,,,,,0.9757448969987826,1.03759765625
elevator-001,1773305992554,2026-03-12 16:59:52.554,1773305992554,0,1,0.0166015625,-0.01318359375,-0.97607421875,-0.30517578125,0.79345703125,0.91552734375,0,0,0,0.0,0.0,0.0,25.69,,,,,,,0.9763044092546286,1.2493584894078809
elevator-001,1773305992579,2026-03-12 16:59:52.579,1773305992578,1,1,0.01806640625,-0.009765625,-0.97119140625,-0.244140625,0.91552734375,0.6103515625,0,0,0,0.0,0.0,0.0,25.88,,,,,,,0.9714085186162839,1.1270865058971795
elevator-001,1773305992613,2026-03-12 16:59:52.613,1773305992603,10,1,0.0205078125,-0.0146484375,-0.9658203125,-0.1220703125,0.8544921875,0.79345703125,0,0,0,0.0,0.0,0.0,25.88,,,,,,,0.9661490687944196,1.1724470649596281
elevator-001,1773305992635,2026-03-12 16:59:52.635,1773305992629,6,1,0.01513671875,-0.01171875,-0.966796875,-0.18310546875,0.6103515625,0.732421875,0,0,0,0.0,0.0,0.0,26.07,,,,,,,0.9669863736712347,0.9708235913444132
elevator-001,1773305992658,2026-03-12 16:59:52.658,1773305992653,5,1,0.015625,-0.0126953125,-0.974609375,-0.3662109375,0.6103515625,0.79345703125,0,0,0,0.0,0.0,0.0,25.88,,,,,,,0.9748172882250106,1.065933178501769
elevator-001,1773305992681,2026-03-12 16:59:52.681,1773305992678,3,1,0.01953125,-0.0126953125,-0.97021484375,-0.30517578125,0.732421875,0.732421875,0,0,0,0.0,0.0,0.0,25.63,,,,,,,0.9704944532138615,1.079822144345345
elevator-001,1773305992704,2026-03-12 16:59:52.704,1773305992703,1,1,0.01953125,-0.0146484375,-0.970703125,-0.30517578125,0.79345703125,0.732421875,0,0,0,0.0,0.0,0.0,25.75,,,,,,,0.9710100943515054,1.1221176947540428
elevator-001,1773305992739,2026-03-12 16:59:52.739,1773305992729,10,1,0.0185546875,-0.01318359375,-0.97265625,-0.18310546875,0.732421875,0.79345703125,0,0,0,0.0,0.0,0.0,25.88,,,,,,,0.9729225376341377,1.0952367214920875
elevator-001,1773305992761,2026-03-12 16:59:52.761,1773305992753,8,1,0.02001953125,-0.013671875,-0.97412109375,-0.3662109375,0.79345703125,0.8544921875,0,0,0,0.0,0.0,0.0,25.88,,,,,,,0.9744227045210829,1.222228051422167
elevator-001,1773305992784,2026-03-12 16:59:52.784,1773305992779,5,1,0.01806640625,-0.01025390625,-0.97119140625,-0.1220703125,0.54931640625,0.67138671875,0,0,0,0.0,0.0,0.0,25.82,,,,,,,0.9714135500403659,0.8760192928715408
elevator-001,1773305992811,2026-03-12 16:59:52.811,1773305992804,7,1,0.01806640625,-0.0146484375,-0.9697265625,-0.244140625,0.79345703125,0.6103515625,0,0,0,0.0,0.0,0.0,25.88,,,,,,,0.970005452445525,1.030392029793343
elevator-001,1773305992833,2026-03-12 16:59:52.833,1773305992828,5,1,0.02001953125,-0.01171875,-0.97021484375,-0.1220703125,0.79345703125,0.732421875,0,0,0,0.0,0.0,0.0,25.82,,,,,,,0.9704921193733976,1.0867000619363316
elevator-001,1773305992855,2026-03-12 16:59:52.855,1773305992853,2,1,0.01806640625,-0.0166015625,-0.9697265625,-0.244140625,0.79345703125,0.67138671875,0,0,0,0.0,0.0,0.0,25.75,,,,,,,0.9700369131792346,1.0676791799643495
elevator-001,1773305992880,2026-03-12 16:59:52.880,1773305992878,2,1,0.01708984375,-0.0107421875,-0.9716796875,0.06103515625,0.8544921875,0.67138671875,0,0,0,0.0,0.0,0.0,25.69,,,,,,,0.9718893313807814,1.0884127502518925
elevator-001,1773305992912,2026-03-12 16:59:52.912,1773305992903,9,1,0.01806640625,-0.013671875,-0.97119140625,-0.244140625,0.732421875,0.79345703125,0,0,0,0.0,0.0,0.0,25.82,,,,,,,0.9714556411770217,1.1070774625986972
elevator-001,1773305992934,2026-03-12 16:59:52.934,1773305992928,6,1,0.01953125,-0.01318359375,-0.9716796875,-0.18310546875,0.91552734375,0.79345703125,0,0,0,0.0,0.0,0.0,25.69,,,,,,,0.9719653759115214,1.2252722106863239
elevator-001,1773305992956,2026-03-12 16:59:52.956,1773305992953,3,1,0.01904296875,-0.01318359375,-0.97021484375,-0.18310546875,0.67138671875,0.8544921875,0,0,0,0.0,0.0,0.0,25.69,,,,,,,0.9704912595360226,1.1020184378215203
elevator-001,1773305992978,2026-03-12 16:59:52.978,1773305992978,0,1,0.01708984375,-0.0126953125,-0.97265625,-0.18310546875,0.6103515625,0.79345703125,0,0,0,0.0,0.0,0.0,25.75,,,,,,,0.9728892097165712,1.0176594238606609
elevator-001,1773305993011,2026-03-12 16:59:53.011,1773305993004,7,1,0.01806640625,-0.0146484375,-0.97216796875,-0.244140625,0.6103515625,0.67138671875,0,0,0,0.0,0.0,0.0,25.75,,,,,,,0.972446158519577,0.9396242870080964
elevator-001,1773305993035,2026-03-12 16:59:53.035,1773305993028,7,1,0.01708984375,-0.0166015625,-0.97216796875,-0.18310546875,0.6103515625,0.67138671875,0,0,0,0.0,0.0,0.0,25.75,,,,,,,0.9724598881703769,0.925643975103949
elevator-001,1773305993059,2026-03-12 16:59:53.059,1773305993053,6,1,0.01708984375,-0.01513671875,-0.9716796875,-0.18310546875,0.6103515625,0.732421875,0,0,0,0.0,0.0,0.0,25.88,,,,,,,0.9719478371363423,0.9708235913444132
elevator-001,1773305993080,2026-03-12 16:59:53.080,1773305993078,2,1,0.01806640625,-0.01171875,-0.97216796875,-0.18310546875,0.6103515625,0.6103515625,0,0,0,0.0,0.0,0.0,25.69,,,,,,,0.9724064395096598,0.8823750179932227
elevator-001,1773305993113,2026-03-12 16:59:53.113,1773305993104,9,1,0.01513671875,-0.013671875,-0.9697265625,-0.3662109375,0.54931640625,0.67138671875,0,0,0,0.0,0.0,0.0,25.82,,,,,,,0.9699410530741539,0.9416045300623481
elevator-001,1773305993135,2026-03-12 16:59:53.135,1773305993129,6,1,0.01171875,-0.0087890625,-0.970703125,-0.30517578125,0.732421875,0.67138671875,0,0,0,0.0,0.0,0.0,25.69,,,,,,,0.9708136451482112,1.0393912576859377
elevator-001,1773305993158,2026-03-12 16:59:53.158,1773305993154,4,1,0.02392578125,-0.01611328125,-0.97265625,-0.244140625,0.732421875,0.732421875,0,0,0,0.0,0.0,0.0,25.69,,,,,,,0.9730838923264155,1.0641843123878598
elevator-001,1773305993180,2026-03-12 16:59:53.180,1773305993179,1,1,0.01904296875,-0.01123046875,-0.96923828125,0.0,0.67138671875,0.732421875,0,0,0,0.0,0.0,0.0,25.75,,,,,,,0.9694903836179152,0.9935803586486637
elevator-001,1773305993213,2026-03-12 16:59:53.213,1773305993203,10,1,0.015625,-0.01513671875,-0.97314453125,-0.244140625,0.67138671875,0.732421875,0,0,0,0.0,0.0,0.0,26.0,,,,,,,0.9733876615107153,1.0231356576074346
elevator-001,1773305993236,2026-03-12 16:59:53.236,1773305993228,8,1,0.0224609375,-0.0126953125,-0.96875,-0.30517578125,0.54931640625,0.732421875,0,0,0,0.0,0.0,0.0,25.63,,,,,,,0.9690935079613585,0.9650505554713071
elevator-001,1773305993257,2026-03-12 16:59:53.257,1773305993253,4,1,0.01611328125,-0.01611328125,-0.97119140625,-0.3662109375,0.6103515625,0.67138671875,0,0,0,0.0,0.0,0.0,25.69,,,,,,,0.9714587089728187,0.9784679896167845
elevator-001,1773305993280,2026-03-12 16:59:53.280,1773305993279,1,1,0.02001953125,-0.01220703125,-0.96923828125,-0.18310546875,0.732421875,0.732421875,0,0,0,0.0,0.0,0.0,25.69,,,,,,,0.969521861065475,1.0518608361580863
elevator-001,1773305993312,2026-03-12 16:59:53.312,1773305993303,9,1,0.0166015625,-0.0166015625,-0.97119140625,-0.30517578125,0.79345703125,0.732421875,0,0,0,0.0,0.0,0.0,26.07,,,,,,,0.9714751521931662,1.1221176947540428
elevator-001,1773305993334,2026-03-12 16:59:53.334,1773305993329,5,1,0.021484375,-0.01416015625,-0.96875,-0.244140625,0.732421875,0.732421875,0,0,0,0.0,0.0,0.0,25.56,,,,,,,0.9690916627926199,1.0641843123878598
elevator-001,1773305993356,2026-03-12 16:59:53.356,1773305993354,2,1,0.0185546875,-0.0146484375,-0.97265625,-0.30517578125,0.79345703125,0.79345703125,0,0,0,0.0,0.0,0.0,26.07,,,,,,,0.9729434895272575,1.1628759084019562
elevator-001,1773305993378,2026-03-12 16:59:53.378,1773305993378,0,1,0.01708984375,-0.01416015625,-0.97314453125,-0.244140625,0.67138671875,0.67138671875,0,0,0,0.0,0.0,0.0,25.69,,,,,,,0.9733975814055663,0.9803697756475226
elevator-001,1773305993411,2026-03-12 16:59:53.411,1773305993404,7,1,0.0166015625,-0.01220703125,-0.9716796875,-0.244140625,0.79345703125,0.732421875,0,0,0,0.0,0.0,0.0,25.63,,,,,,,0.9718981626639066,1.1070774625986972
elevator-001,1773305993433,2026-03-12 16:59:53.433,1773305993429,4,1,0.0166015625,-0.01123046875,-0.97021484375,-0.3662109375,0.732421875,0.6103515625,0,0,0,0.0,0.0,0.0,25.63,,,,,,,0.9704218558640479,1.021313508952729
elevator-001,1773305993455,2026-03-12 16:59:53.455,1773305993453,2,1,0.02099609375,-0.0126953125,-0.970703125,-0.244140625,0.732421875,0.67138671875,0,0,0,0.0,0.0,0.0,25.75,,,,,,,0.9710131635549526,1.0231356576074346
elevator-001,1773305993488,2026-03-12 16:59:53.488,1773305993479,9,1,0.01708984375,-0.013671875,-0.97265625,-0.244140625,0.8544921875,0.67138671875,0,0,0,0.0,0.0,0.0,25.88,,,,,,,0.9729024429969726,1.1137870844051916
elevator-001,1773305993511,2026-03-12 16:59:53.511,1773305993503,8,1,0.02099609375,-0.013671875,-0.97119140625,-0.1220703125,0.91552734375,0.79345703125,0,0,0,0.0,0.0,0.0,25.5,,,,,,,0.9715145411637579,1.2176475429235842
elevator-001,1773305993533,2026-03-12 16:59:53.533,1773305993528,5,1,0.0185546875,-0.0107421875,-0.97216796875,-0.244140625,0.6103515625,0.732421875,0,0,0,0.0,0.0,0.0,25.69,,,,,,,0.9724043554427391,0.9841623227903503
elevator-001,1773305993555,2026-03-12 16:59:53.555,1773305993553,2,1,0.01806640625,-0.01220703125,-0.9736328125,-0.1220703125,0.67138671875,0.732421875,0,0,0,0.0,0.0,0.0,25.69,,,,,,,0.9738769225232666,1.0010509928501419
elevator-001,1773305993588,2026-03-12 16:59:53.588,1773305993578,10,1,0.01708984375,-0.01416015625,-0.97119140625,-0.18310546875,0.79345703125,0.79345703125,0,0,0,0.0,0.0,0.0,25.88,,,,,,,0.9714449651721276,1.1369589849973851
elevator-001,1773305993610,2026-03-12 16:59:53.610,1773305993603,7,1,0.02001953125,-0.013671875,-0.9716796875,-0.3662109375,0.54931640625,0.79345703125,0,0,0,0.0,0.0,0.0,25.88,,,,,,,0.9719820558516412,1.0321981521782082
elevator-001,1773305993632,2026-03-12 16:59:53.632,1773305993628,4,1,0.0166015625,-0.015625,-0.9736328125,-0.30517578125,0.6103515625,0.8544921875,0,0,0,0.0,0.0,0.0,25.69,,,,,,,0.9738996899471226,1.0935347208965402
elevator-001,1773305993655,2026-03-12 16:59:53.655,1773305993653,2,1,0.02099609375,-0.0146484375,-0.9697265625,-0.1220703125,0.8544921875,0.8544921875,0,0,0,0.0,0.0,0.0,25.88,,,,,,,0.9700644404842478,1.214584273811792
elevator-001,1773305993688,2026-03-12 16:59:53.688,1773305993679,9,1,0.02001953125,-0.01416015625,-0.96923828125,-0.30517578125,0.8544921875,0.732421875,0,0,0,0.0,0.0,0.0,25.88,,,,,,,0.9695484193669485,1.1660750228602783
elevator-001,1773305993711,2026-03-12 16:59:53.711,1773305993704,7,1,0.01318359375,-0.01416015625,-0.97265625,-0.1220703125,0.732421875,0.732421875,0,0,0,0.0,0.0,0.0,25.69,,,,,,,0.9728486510414927,1.0429692071920815
elevator-001,1773305993733,2026-03-12 16:59:53.733,1773305993729,4,1,0.01513671875,-0.015625,-0.97314453125,-0.30517578125,0.732421875,0.732421875,0,0,0,0.0,0.0,0.0,25.69,,,,,,,0.9733876615107153,1.079822144345345
elevator-001,1773305993755,2026-03-12 16:59:53.755,1773305993754,1,1,0.02099609375,-0.01416015625,-0.97119140625,0.0,0.8544921875,0.732421875,0,0,0,0.0,0.0,0.0,25.88,,,,,,,0.9715215352999829,1.1254326730093858
elevator-001,1773305993788,2026-03-12 16:59:53.788,1773305993779,9,1,0.0244140625,-0.0107421875,-0.97412109375,-0.18310546875,0.67138671875,0.79345703125,0,0,0,0.0,0.0,0.0,25.88,,,,,,,0.9744861960688491,1.055396512804601
elevator-001,1773305993810,2026-03-12 16:59:53.810,1773305993804,6,1,0.01806640625,-0.01416015625,-0.97412109375,-0.1220703125,0.54931640625,0.79345703125,0,0,0,0.0,0.0,0.0,25.5,,,,,,,0.974391507736244,0.9727403229070574
elevator-001,1773305993833,2026-03-12 16:59:53.833,1773305993828,5,1,0.01513671875,-0.01171875,-0.97412109375,-0.3662109375,0.8544921875,0.91552734375,0,0,0,0.0,0.0,0.0,25.75,,,,,,,0.974309167895271,1.3047826126972626
elevator-001,1773305993856,2026-03-12 16:59:53.856,1773305993854,2,1,0.01953125,-0.013671875,-0.97216796875,-0.244140625,0.732421875,0.732421875,0,0,0,0.0,0.0,0.0,25.69,,,,,,,0.9724602559262148,1.0641843123878598
elevator-001,1773305993879,2026-03-12 16:59:53.879,1773305993878,1,1,0.0234375,-0.0087890625,-0.97021484375,-0.30517578125,0.67138671875,0.732421875,0,0,0,0.0,0.0,0.0,26.0,,,,,,,0.9705376896641963,1.0393912576859377
elevator-001,1773305993911,2026-03-12 16:59:53.911,1773305993903,8,1,0.0185546875,-0.0146484375,-0.96826171875,-0.18310546875,0.732421875,0.6103515625,0,0,0,0.0,0.0,0.0,25.75,,,,,,,0.9685502615487325,0.9708235913444132
elevator-001,1773305993933,2026-03-12 16:59:53.933,1773305993928,5,1,0.01123046875,-0.01416015625,-0.97119140625,-0.30517578125,0.732421875,0.79345703125,0,0,0,0.0,0.0,0.0,25.69,,,,,,,0.9713595529088195,1.1221176947540428
elevator-001,1773305993955,2026-03-12 16:59:53.955,1773305993953,2,1,0.01806640625,-0.0146484375,-0.97216796875,0.0,0.8544921875,0.732421875,0,0,0,0.0,0.0,0.0,25.75,,,,,,,0.972446158519577,1.1254326730093858
elevator-001,1773305993988,2026-03-12 16:59:53.988,1773305993979,9,1,0.0185546875,-0.0107421875,-0.96875,-0.1220703125,0.79345703125,0.67138671875,0,0,0,0.0,0.0,0.0,25.88,,,,,,,0.9689872205145472,1.046534924284805
elevator-001,1773305994010,2026-03-12 16:59:54.010,1773305994004,6,1,0.01904296875,-0.0126953125,-0.96923828125,-0.244140625,0.67138671875,0.79345703125,0,0,0,0.0,0.0,0.0,25.88,,,,,,,0.9695084586834404,1.0676791799643495
elevator-001,1773305994032,2026-03-12 16:59:54.032,1773305994028,4,1,0.015625,-0.01123046875,-0.97412109375,-0.244140625,0.732421875,0.79345703125,0,0,0,0.0,0.0,0.0,25.69,,,,,,,0.9743111255353913,1.1070774625986972
elevator-001,1773305994055,2026-03-12 16:59:54.055,1773305994054,1,1,0.01953125,-0.009765625,-0.97412109375,-0.06103515625,0.67138671875,0.732421875,0,0,0,0.0,0.0,0.0,25.88,,,,,,,0.9743658155163796,0.9954532733337458
elevator-001,1773305994088,2026-03-12 16:59:54.088,1773305994079,9,1,0.021484375,-0.01220703125,-0.9658203125,-0.18310546875,0.79345703125,0.67138671875,0,0,0,0.0,0.0,0.0,25.75,,,,,,,0.9661363599506422,1.055396512804601
elevator-001,1773305994111,2026-03-12 16:59:54.111,1773305994103,8,1,0.0166015625,-0.01416015625,-0.9736328125,-0.06103515625,0.79345703125,0.67138671875,0,0,0,0.0,0.0,0.0,25.69,,,,,,,0.9738772897440037,1.0411817693623036
elevator-001,1773305994133,2026-03-12 16:59:54.133,1773305994129,4,1,0.02001953125,-0.01171875,-0.9677734375,-0.30517578125,0.732421875,0.67138671875,0,0,0,0.0,0.0,0.0,25.75,,,,,,,0.9680514124072123,1.0393912576859377
elevator-001,1773305994156,2026-03-12 16:59:54.156,1773305994154,2,1,0.0185546875,-0.013671875,-0.97216796875,-0.30517578125,0.79345703125,0.732421875,0,0,0,0.0,0.0,0.0,26.07,,,,,,,0.9724411324382259,1.1221176947540428
elevator-001,1773305994189,2026-03-12 16:59:54.189,1773305994179,10,1,0.01904296875,-0.01171875,-0.97216796875,-0.18310546875,0.48828125,0.8544921875,0,0,0,0.0,0.0,0.0,25.88,,,,,,,0.9724250733212698,1.0010509928501419
elevator-001,1773305994211,2026-03-12 16:59:54.211,1773305994204,7,1,0.02001953125,-0.01513671875,-0.96826171875,-0.18310546875,0.6103515625,0.732421875,0,0,0,0.0,0.0,0.0,25.69,,,,,,,0.9685869387322392,0.9708235913444132
elevator-001,1773305994233,2026-03-12 16:59:54.233,1773305994229,4,1,0.02099609375,-0.009765625,-0.97119140625,-0.30517578125,0.6103515625,0.67138671875,0,0,0,0.0,0.0,0.0,25.63,,,,,,,0.9714674214600569,0.9572990198582838
elevator-001,1773305994255,2026-03-12 16:59:54.255,1773305994253,2,1,0.017578125,-0.01416015625,-0.97119140625,-0.06103515625,0.67138671875,0.54931640625,0,0,0,0.0,0.0,0.0,25.69,,,,,,,0.9714536777826273,0.8696171172348027
elevator-001,1773305994288,2026-03-12 16:59:54.288,1773305994279,9,1,0.0185546875,-0.01220703125,-0.97265625,-0.30517578125,0.6103515625,0.67138671875,0,0,0,0.0,0.0,0.0,25.69,,,,,,,0.9729097947416419,0.9572990198582838
elevator-001,1773305994310,2026-03-12 16:59:54.310,1773305994304,6,1,0.01904296875,-0.013671875,-0.97119140625,-0.244140625,0.91552734375,0.79345703125,0,0,0,0.0,0.0,0.0,25.69,,,,,,,0.9714742932258587,1.235867720417272
elevator-001,1773305994332,2026-03-12 16:59:54.332,1773305994328,4,1,0.0185546875,-0.0107421875,-0.9736328125,-0.30517578125,0.79345703125,0.732421875,0,0,0,0.0,0.0,0.0,25.75,,,,,,,0.9738688436320201,1.1221176947540428
elevator-001,1773305994365,2026-03-12 16:59:54.365,1773305994358,7,1,0.01904296875,-0.0126953125,-0.97216796875,-0.18310546875,0.54931640625,0.79345703125,0,0,0,0.0,0.0,0.0,25.69,,,,,,,0.9724373322131289,0.9822678796039478
elevator-001,1773305994388,2026-03-12 16:59:54.388,1773305994379,9,1,0.0185546875,-0.0087890625,-0.9697265625,-0.18310546875,0.8544921875,0.67138671875,0,0,0,0.0,0.0,0.0,25.69,,,,,,,0.9699438798538388,1.1020184378215203
elevator-001,1773305994410,2026-03-12 16:59:54.410,1773305994405,5,1,0.01953125,-0.013671875,-0.97021484375,-0.06103515625,0.54931640625,0.79345703125,0,0,0,0.0,0.0,0.0,25.75,,,,,,,0.9705077191477742,0.9669787303317176
elevator-001,1773305994434,2026-03-12 16:59:54.434,1773305994429,5,1,0.01953125,-0.0126953125,-0.96923828125,-0.18310546875,0.732421875,0.732421875,0,0,0,0.0,0.0,0.0,25.82,,,,,,,0.9695181723549535,1.0518608361580863
elevator-001,1773305994457,2026-03-12 16:59:54.457,1773305994453,4,1,0.0205078125,-0.015625,-0.970703125,-0.244140625,0.732421875,0.79345703125,0,0,0,0.0,0.0,0.0,26.0,,,,,,,0.9710454509873885,1.1070774625986972
elevator-001,1773305994495,2026-03-12 16:59:54.495,1773305994494,1,1,0.0166015625,-0.0107421875,-0.97021484375,-0.18310546875,0.6103515625,0.54931640625,0,0,0,0.0,0.0,0.0,26.0,,,,,,,0.9704163279245478,0.8413115693414442
elevator-001,1773305994509,2026-03-12 16:59:54.509,1773305994507,2,1,0.0166015625,-0.0107421875,-0.97021484375,-0.18310546875,0.6103515625,0.54931640625,0,0,0,0.0,0.0,0.0,26.0,38,-33,-1994,-6,13,13,0.9704163279245478,0.8413115693414442
elevator-001,1773305994532,2026-03-12 16:59:54.532,1773305994528,4,1,0.01318359375,-0.01171875,-0.9697265625,-0.06103515625,0.67138671875,0.732421875,0,0,0,0.0,0.0,0.0,25.88,38,-33,-1994,-6,13,13,0.9698869739633551,0.9954532733337458
elevator-001,1773305994555,2026-03-12 16:59:54.555,1773305994553,2,1,0.01904296875,-0.013671875,-0.970703125,-0.244140625,0.732421875,0.79345703125,0,0,0,0.0,0.0,0.0,26.07,38,-33,-1994,-6,13,13,0.9709861542316629,1.1070774625986972
elevator-001,1773305994588,2026-03-12 16:59:54.588,1773305994580,8,1,0.0205078125,-0.01318359375,-0.97119140625,-0.244140625,0.732421875,0.732421875,0,0,0,0.0,0.0,0.0,25.88,38,-33,-1994,-6,13,13,0.9714973623698382,1.0641843123878598
elevator-001,1773305994612,2026-03-12 16:59:54.612,1773305994603,9,1,0.0185546875,-0.01220703125,-0.9736328125,-0.18310546875,0.67138671875,0.6103515625,0,0,0,0.0,0.0,0.0,25.88,38,-33,-1994,-6,13,13,0.9738861030001513,0.925643975103949
elevator-001,1773305994634,2026-03-12 16:59:54.634,1773305994629,5,1,0.017578125,-0.01171875,-0.970703125,-0.30517578125,0.8544921875,0.79345703125,0,0,0,0.0,0.0,0.0,25.88,38,-33,-1994,-6,13,13,0.9709329927779999,1.2053477574543152
elevator-001,1773305994656,2026-03-12 16:59:54.656,1773305994654,2,1,0.01904296875,-0.0107421875,-0.97265625,-0.1220703125,0.8544921875,0.732421875,0,0,0,0.0,0.0,0.0,25.63,38,-33,-1994,-6,13,13,0.9729019528786861,1.1320335077509405
elevator-001,1773305994679,2026-03-12 16:59:54.679,1773305994679,0,1,0.01708984375,-0.0126953125,-0.97021484375,-0.1220703125,0.79345703125,0.6103515625,0,0,0,0.0,0.0,0.0,25.69,38,-33,-1994,-6,13,13,0.9704483895353266,1.0084662867345158
elevator-001,1773305994712,2026-03-12 16:59:54.712,1773305994703,9,1,0.0166015625,-0.01416015625,-0.9716796875,-0.30517578125,0.79345703125,0.67138671875,0,0,0,0.0,0.0,0.0,25.82,38,-33,-1994,-6,13,13,0.9719246560318158,1.0832665618468535
elevator-001,1773305994734,2026-03-12 16:59:54.734,1773305994729,5,1,0.017578125,-0.01123046875,-0.9716796875,-0.18310546875,0.732421875,0.8544921875,0,0,0,0.0,0.0,0.0,25.75,38,-33,-1994,-6,13,13,0.971903559519646,1.1402308161785526
elevator-001,1773305994756,2026-03-12 16:59:54.756,1773305994754,2,1,0.02001953125,-0.015625,-0.970703125,-0.1220703125,0.732421875,0.732421875,0,0,0,0.0,0.0,0.0,25.88,38,-33,-1994,-6,13,13,0.9710352615333984,1.0429692071920815
elevator-001,1773305994779,2026-03-12 16:59:54.779,1773305994779,0,1,0.01708984375,-0.01123046875,-0.9736328125,-0.3662109375,0.732421875,0.67138671875,0,0,0,0.0,0.0,0.0,25.69,38,-33,-1994,-6,13,13,0.9738475444156566,1.0589203840879804
elevator-001,1773305994812,2026-03-12 16:59:54.812,1773305994804,8,1,0.017578125,-0.01318359375,-0.974609375,-0.30517578125,0.79345703125,0.67138671875,0,0,0,0.0,0.0,0.0,25.88,38,-33,-1994,-6,13,13,0.9748570312925744,1.0832665618468535
elevator-001,1773305994835,2026-03-12 16:59:54.835,1773305994828,7,1,0.01708984375,-0.0126953125,-0.9677734375,-0.06103515625,0.6103515625,0.6103515625,0,0,0,0.0,0.0,0.0,25.69,38,-33,-1994,-6,13,13,0.9680075723099683,0.8653226854710586
elevator-001,1773305994857,2026-03-12 16:59:54.857,1773305994853,4,1,0.01708984375,-0.01025390625,-0.9697265625,-0.18310546875,0.79345703125,0.732421875,0,0,0,0.0,0.0,0.0,25.75,38,-33,-1994,-6,13,13,0.969931343637708,1.0952367214920875
elevator-001,1773305994880,2026-03-12 16:59:54.880,1773305994879,1,1,0.017578125,-0.0126953125,-0.97021484375,-0.244140625,0.79345703125,0.79345703125,0,0,0,0.0,0.0,0.0,25.88,38,-33,-1994,-6,13,13,0.9704571110929247,1.1483696119523181
elevator-001,1773305994913,2026-03-12 16:59:54.913,1773305994904,9,1,0.017578125,-0.013671875,-0.97119140625,-0.18310546875,0.8544921875,0.732421875,0,0,0,0.0,0.0,0.0,25.88,38,-33,-1994,-6,13,13,0.9714466831578478,1.1402308161785526
elevator-001,1773305994936,2026-03-12 16:59:54.936,1773305994929,7,1,0.01904296875,-0.0126953125,-0.9716796875,-0.244140625,0.732421875,0.67138671875,0,0,0,0.0,0.0,0.0,25.75,38,-33,-1994,-6,13,13,0.9719491862841307,1.0231356576074346
elevator-001,1773305994958,2026-03-12 16:59:54.958,1773305994953,5,1,0.01953125,-0.015625,-0.96923828125,-0.18310546875,0.48828125,0.67138671875,0,0,0,0.0,0.0,0.0,25.88,38,-33,-1994,-6,13,13,0.9695609605342083,0.8501213548086011
elevator-001,1773305994980,2026-03-12 16:59:54.980,1773305994978,2,1,0.017578125,-0.01171875,-0.96923828125,-0.18310546875,0.79345703125,0.67138671875,0,0,0,0.0,0.0,0.0,25.69,38,-33,-1994,-6,13,13,0.9694684963527862,1.055396512804601
elevator-001,1773305995013,2026-03-12 16:59:55.013,1773305995003,10,1,0.017578125,-0.0146484375,-0.97265625,-0.18310546875,0.6103515625,0.79345703125,0,0,0,0.0,0.0,0.0,25.88,38,-33,-1994,-6,13,13,0.9729253557512876,1.0176594238606609
elevator-001,1773305995035,2026-03-12 16:59:55.035,1773305995028,7,1,0.01806640625,-0.013671875,-0.97216796875,-0.1220703125,0.732421875,0.732421875,0,0,0,0.0,0.0,0.0,25.75,38,-33,-1994,-6,13,13,0.9724319383197503,1.0429692071920815
elevator-001,1773305995058,2026-03-12 16:59:55.058,1773305995054,4,1,0.0185546875,-0.01416015625,-0.97265625,-0.18310546875,0.79345703125,0.732421875,0,0,0,0.0,0.0,0.0,25.88,38,-33,-1994,-6,13,13,0.972936260562484,1.0952367214920875
elevator-001,1773305995082,2026-03-12 16:59:55.082,1773305995079,3,1,0.015625,-0.01318359375,-0.9716796875,-0.3662109375,0.54931640625,0.732421875,0,0,0,0.0,0.0,0.0,25.88,38,-33,-1994,-6,13,13,0.9718947282855601,0.9860531263063667
elevator-001,1773305995105,2026-03-12 16:59:55.105,1773305995103,2,1,0.01806640625,-0.01220703125,-0.9736328125,-0.1220703125,0.67138671875,0.732421875,0,0,0,0.0,0.0,0.0,25.63,38,-33,-1994,-6,13,13,0.9738769225232666,1.0010509928501419
elevator-001,1773305995130,2026-03-12 16:59:55.130,1773305995128,2,1,0.01806640625,-0.009765625,-0.9736328125,-0.06103515625,0.67138671875,0.732421875,0,0,0,0.0,0.0,0.0,25.75,38,-33,-1994,-6,13,13,0.9738493805733466,0.9954532733337458
elevator-001,1773305995162,2026-03-12 16:59:55.162,1773305995154,8,1,0.01806640625,-0.0166015625,-0.97119140625,-0.18310546875,0.54931640625,0.67138671875,0,0,0,0.0,0.0,0.0,25.88,38,-33,-1994,-6,13,13,0.9715012889780867,0.8865868558553436
elevator-001,1773305995184,2026-03-12 16:59:55.184,1773305995178,6,1,0.0146484375,-0.013671875,-0.970703125,-0.1220703125,0.67138671875,0.79345703125,0,0,0,0.0,0.0,0.0,25.69,38,-33,-1994,-6,13,13,0.9709099102244104,1.046534924284805
elevator-001,1773305995207,2026-03-12 16:59:55.207,1773305995203,4,1,0.01904296875,-0.01611328125,-0.9716796875,-0.1220703125,0.67138671875,0.67138671875,0,0,0,0.0,0.0,0.0,25.88,38,-33,-1994,-6,13,13,0.9719998392960529,0.9572990198582838
elevator-001,1773305995228,2026-03-12 16:59:55.228,1773305995228,0,1,0.01318359375,-0.01123046875,-0.974609375,-0.18310546875,0.79345703125,0.732421875,0,0,0,0.0,0.0,0.0,25.88,38,-33,-1994,-6,13,13,0.9747632350526975,1.0952367214920875
elevator-001,1773305995261,2026-03-12 16:59:55.261,1773305995253,8,1,0.01806640625,-0.01416015625,-0.97119140625,-0.1220703125,0.732421875,0.79345703125,0,0,0,0.0,0.0,0.0,25.69,38,-33,-1994,-6,13,13,0.9714626357373025,1.0867000619363316
elevator-001,1773305995283,2026-03-12 16:59:55.283,1773305995279,4,1,0.021484375,-0.0146484375,-0.96728515625,-0.244140625,0.67138671875,0.67138671875,0,0,0,0.0,0.0,0.0,25.75,38,-33,-1994,-6,13,13,0.9676346048958351,0.9803697756475226
elevator-001,1773305995308,2026-03-12 16:59:55.308,1773305995304,4,1,0.0166015625,-0.01171875,-0.9716796875,-0.244140625,0.732421875,0.67138671875,0,0,0,0.0,0.0,0.0,25.82,38,-33,-1994,-6,13,13,0.9718921524938359,1.0231356576074346
elevator-001,1773305995334,2026-03-12 16:59:55.334,1773305995328,6,1,0.017578125,-0.01220703125,-0.9794921875,-0.244140625,0.67138671875,0.67138671875,0,0,0,0.0,0.0,0.0,25.69,38,-33,-1994,-6,13,13,0.9797259552874923,0.9803697756475226
elevator-001,1773305995357,2026-03-12 16:59:55.357,1773305995355,2,1,0.0185546875,-0.01416015625,-0.97216796875,-0.30517578125,0.732421875,0.79345703125,0,0,0,0.0,0.0,0.0,25.63,38,-33,-1994,-6,13,13,0.9724481199101308,1.1221176947540428
elevator-001,1773305995380,2026-03-12 16:59:55.380,1773305995379,1,1,0.01806640625,-0.013671875,-0.9716796875,-0.244140625,0.732421875,0.8544921875,0,0,0,0.0,0.0,0.0,25.88,38,-33,-1994,-6,13,13,0.9719437896817404,1.1516090249092534
elevator-001,1773305995414,2026-03-12 16:59:55.414,1773305995405,9,1,0.021484375,-0.01123046875,-0.9716796875,-0.18310546875,0.732421875,0.79345703125,0,0,0,0.0,0.0,0.0,26.0,38,-33,-1994,-6,13,13,0.9719820558516412,1.0952367214920875
elevator-001,1773305995438,2026-03-12 16:59:55.438,1773305995436,2,1,0.01953125,-0.01318359375,-0.97119140625,-0.244140625,0.6103515625,0.6103515625,0,0,0,0.0,0.0,0.0,25.88,38,-33,-1994,-6,13,13,0.9714772382534652,0.8970299351012615
elevator-001,1773305995463,2026-03-12 16:59:55.463,1773305995453,10,1,0.01416015625,-0.01318359375,-0.9697265625,-0.1220703125,0.732421875,0.67138671875,0,0,0,0.0,0.0,0.0,25.82,38,-33,-1994,-6,13,13,0.9699195446980413,1.0010509928501419
elevator-001,1773305995485,2026-03-12 16:59:55.485,1773305995479,6,1,0.02001953125,-0.0107421875,-0.97119140625,-0.1220703125,0.732421875,0.732421875,0,0,0,0.0,0.0,0.0,25.69,38,-33,-1994,-6,13,13,0.9714571137202133,1.0429692071920815
elevator-001,1773305995507,2026-03-12 16:59:55.507,1773305995504,3,1,0.0166015625,-0.013671875,-0.97314453125,-0.244140625,0.67138671875,0.732421875,0,0,0,0.0,0.0,0.0,25.75,38,-33,-1994,-6,13,13,0.9733821504143372,1.0231356576074346
elevator-001,1773305995530,2026-03-12 16:59:55.530,1773305995529,1,1,0.02099609375,-0.00927734375,-0.97021484375,-0.06103515625,0.6103515625,0.732421875,0,0,0,0.0,0.0,0.0,25.5,38,-33,-1994,-6,13,13,0.970486346164979,0.9553513087462481
elevator-001,1773305995562,2026-03-12 16:59:55.562,1773305995554,8,1,0.02197265625,-0.01318359375,-0.97216796875,0.0,0.732421875,0.732421875,0,0,0,0.0,0.0,0.0,25.69,38,-33,-1994,-6,13,13,0.972505611413295,1.0358009490037317
elevator-001,1773305995585,2026-03-12 16:59:55.585,1773305995578,7,1,0.0205078125,-0.01025390625,-0.97119140625,-0.1220703125,0.79345703125,0.732421875,0,0,0,0.0,0.0,0.0,25.88,38,-33,-1994,-6,13,13,0.9714620221813982,1.0867000619363316
elevator-001,1773305995607,2026-03-12 16:59:55.607,1773305995603,4,1,0.01806640625,-0.01513671875,-0.97021484375,-0.30517578125,0.79345703125,0.8544921875,0,0,0,0.0,0.0,0.0,25.88,38,-33,-1994,-6,13,13,0.9705010862034846,1.2053477574543152
elevator-001,1773305995629,2026-03-12 16:59:55.629,1773305995629,0,1,0.01708984375,-0.01123046875,-0.9736328125,-0.244140625,0.67138671875,0.6103515625,0,0,0,0.0,0.0,0.0,25.69,38,-33,-1994,-6,13,13,0.9738475444156566,0.9396242870080964
elevator-001,1773305995662,2026-03-12 16:59:55.662,1773305995654,8,1,0.017578125,-0.0146484375,-0.96826171875,-0.06103515625,0.79345703125,0.79345703125,0,0,0,0.0,0.0,0.0,25.63,38,-33,-1994,-6,13,13,0.9685320455185833,1.1237764062208233
elevator-001,1773305995685,2026-03-12 16:59:55.685,1773305995679,6,1,0.02001953125,-0.01171875,-0.97265625,-0.18310546875,0.732421875,0.67138671875,0,0,0,0.0,0.0,0.0,25.88,38,-33,-1994,-6,13,13,0.9729328298485435,1.0103116062772735
elevator-001,1773305995708,2026-03-12 16:59:55.708,1773305995703,5,1,0.01708984375,-0.01416015625,-0.97119140625,-0.244140625,0.54931640625,0.732421875,0,0,0,0.0,0.0,0.0,25.69,38,-33,-1994,-6,13,13,0.9714449651721276,0.9475204282385269
elevator-001,1773305995730,2026-03-12 16:59:55.730,1773305995728,2,1,0.01806640625,-0.0107421875,-0.97119140625,0.06103515625,0.79345703125,0.732421875,0,0,0,0.0,0.0,0.0,25.82,38,-33,-1994,-6,13,13,0.971418826871771,1.081545724284018
elevator-001,1773305995763,2026-03-12 16:59:55.763,1773305995754,9,1,0.02099609375,-0.013671875,-0.970703125,-0.18310546875,0.732421875,0.6103515625,0,0,0,0.0,0.0,0.0,25.75,38,-33,-1994,-6,13,13,0.971026422402367,0.9708235913444132
elevator-001,1773305995786,2026-03-12 16:59:55.786,1773305995778,8,1,0.017578125,-0.0126953125,-0.97021484375,-0.244140625,0.67138671875,0.79345703125,0,0,0,0.0,0.0,0.0,25.75,38,-33,-1994,-6,13,13,0.9704571110929247,1.0676791799643495
elevator-001,1773305995808,2026-03-12 16:59:55.808,1773305995804,4,1,0.01953125,-0.0126953125,-0.9736328125,0.0,0.732421875,0.67138671875,0,0,0,0.0,0.0,0.0,25.75,38,-33,-1994,-6,13,13,0.9739114406673203,0.9935803586486637
elevator-001,1773305995830,2026-03-12 16:59:55.830,1773305995828,2,1,0.0166015625,-0.0126953125,-0.97314453125,0.0,0.48828125,0.732421875,0,0,0,0.0,0.0,0.0,26.0,38,-33,-1994,-6,13,13,0.9733689236557207,0.8802615418613255
elevator-001,1773305995864,2026-03-12 16:59:55.864,1773305995855,9,1,0.01611328125,-0.013671875,-0.97119140625,-0.1220703125,0.91552734375,0.732421875,0,0,0,0.0,0.0,0.0,25.88,38,-33,-1994,-6,13,13,0.9714212812021928,1.1787846628312968
elevator-001,1773305995887,2026-03-12 16:59:55.887,1773305995879,8,1,0.017578125,-0.01416015625,-0.9677734375,-0.06103515625,0.79345703125,0.67138671875,0,0,0,0.0,0.0,0.0,25.88,38,-33,-1994,-6,13,13,0.9680366350681706,1.0411817693623036
elevator-001,1773305995909,2026-03-12 16:59:55.909,1773305995903,6,1,0.02001953125,-0.0126953125,-0.970703125,-0.244140625,0.91552734375,0.732421875,0,0,0,0.0,0.0,0.0,25.69,38,-33,-1994,-6,13,13,0.9709925383213344,1.1975962445281119
elevator-001,1773305995931,2026-03-12 16:59:55.931,1773305995929,2,1,0.01708984375,-0.01416015625,-0.9716796875,-0.244140625,0.67138671875,0.8544921875,0,0,0,0.0,0.0,0.0,25.88,38,-33,-1994,-6,13,13,0.9719331190388161,1.1137870844051916
elevator-001,1773305995964,2026-03-12 16:59:55.964,1773305995954,10,1,0.02001953125,-0.015625,-0.96923828125,-0.244140625,0.732421875,0.732421875,0,0,0,0.0,0.0,0.0,25.56,38,-33,-1994,-6,13,13,0.9695709195808855,1.0641843123878598
elevator-001,1773305995986,2026-03-12 16:59:55.986,1773305995978,8,1,0.01513671875,-0.0126953125,-0.97509765625,-0.244140625,0.67138671875,0.67138671875,0,0,0,0.0,0.0,0.0,26.0,38,-33,-1994,-6,13,13,0.9752977650124255,0.9803697756475226
elevator-001,1773305996008,2026-03-12 16:59:56.008,1773305996003,5,1,0.01904296875,-0.01123046875,-0.97216796875,-0.18310546875,0.79345703125,0.79345703125,0,0,0,0.0,0.0,0.0,25.63,38,-33,-1994,-6,13,13,0.9724193115887092,1.1369589849973851
elevator-001,1773305996030,2026-03-12 16:59:56.030,1773305996029,1,1,0.02001953125,-0.013671875,-0.97265625,-0.30517578125,0.8544921875,0.8544921875,0,0,0,0.0,0.0,0.0,25.82,38,-33,-1994,-6,13,13,0.9729583148632566,1.2463731601966637
elevator-001,1773305996063,2026-03-12 16:59:56.063,1773305996054,9,1,0.017578125,-0.0107421875,-0.97314453125,-0.1220703125,0.8544921875,0.67138671875,0,0,0,0.0,0.0,0.0,26.13,38,-33,-1994,-6,13,13,0.973362555152284,1.0935347208965402
elevator-001,1773305996085,2026-03-12 16:59:56.085,1773305996079,6,1,0.01953125,-0.013671875,-0.97265625,-0.244140625,0.79345703125,0.6103515625,0,0,0,0.0,0.0,0.0,25.75,38,-33,-1994,-6,13,13,0.9729483904897734,1.030392029793343
elevator-001,1773305996107,2026-03-12 16:59:56.107,1773305996103,4,1,0.017578125,-0.01416015625,-0.97119140625,-0.244140625,0.79345703125,0.79345703125,0,0,0,0.0,0.0,0.0,26.0,38,-33,-1994,-6,13,13,0.9714536777826273,1.1483696119523181
elevator-001,1773305996129,2026-03-12 16:59:56.129,1773305996128,1,1,0.02001953125,-0.01513671875,-0.9697265625,-0.30517578125,0.79345703125,0.732421875,0,0,0,0.0,0.0,0.0,25.75,38,-33,-1994,-6,13,13,0.9700512913779625,1.1221176947540428
elevator-001,1773305996162,2026-03-12 16:59:56.162,1773305996154,8,1,0.01904296875,-0.01513671875,-0.97314453125,-0.06103515625,0.6103515625,0.67138671875,0,0,0,0.0,0.0,0.0,25.82,38,-33,-1994,-6,13,13,0.9734485264332738,0.9094033462982996
elevator-001,1773305996184,2026-03-12 16:59:56.184,1773305996179,5,1,0.01904296875,-0.0146484375,-0.97314453125,-0.30517578125,0.8544921875,0.67138671875,0,0,0,0.0,0.0,0.0,25.63,38,-33,-1994,-6,13,13,0.9734410562955453,1.1287379155826984
elevator-001,1773305996206,2026-03-12 16:59:56.206,1773305996204,2,1,0.017578125,-0.013671875,-0.97216796875,0.0,0.732421875,0.732421875,0,0,0,0.0,0.0,0.0,25.69,38,-33,-1994,-6,13,13,0.9724229892942845,1.0358009490037317
elevator-001,1773305996228,2026-03-12 16:59:56.228,1773305996228,0,1,0.02099609375,-0.01416015625,-0.97265625,-0.244140625,0.6103515625,0.67138671875,0,0,0,0.0,0.0,0.0,25.63,38,-33,-1994,-6,13,13,0.9729858820362429,0.9396242870080964
elevator-001,1773305996260,2026-03-12 16:59:56.260,1773305996253,7,1,0.01708984375,-0.01416015625,-0.97265625,-0.18310546875,0.67138671875,0.732421875,0,0,0,0.0,0.0,0.0,25.88,38,-33,-1994,-6,13,13,0.9729094271557277,1.0103116062772735
elevator-001,1773305996282,2026-03-12 16:59:56.282,1773305996279,3,1,0.01953125,-0.01513671875,-0.970703125,-0.1220703125,0.6103515625,0.67138671875,0,0,0,0.0,0.0,0.0,25.5,38,-33,-1994,-6,13,13,0.9710175831908734,0.91552734375
elevator-001,1773305996304,2026-03-12 16:59:56.304,1773305996304,0,1,0.01806640625,-0.01123046875,-0.97314453125,-0.06103515625,0.8544921875,0.54931640625,0,0,0,0.0,0.0,0.0,25.63,38,-33,-1994,-6,13,13,0.9733770066962323,1.0176594238606609
elevator-001,1773305996337,2026-03-12 16:59:56.337,1773305996328,9,1,0.01904296875,-0.0126953125,-0.97412109375,-0.30517578125,0.732421875,0.79345703125,0,0,0,0.0,0.0,0.0,25.75,38,-33,-1994,-6,13,13,0.9743899172851608,1.1221176947540428
elevator-001,1773305996359,2026-03-12 16:59:56.359,1773305996353,6,1,0.0166015625,-0.01171875,-0.96826171875,-0.06103515625,0.732421875,0.67138671875,0,0,0,0.0,0.0,0.0,25.82,38,-33,-1994,-6,13,13,0.9684749335815088,0.9954532733337458
elevator-001,1773305996381,2026-03-12 16:59:56.381,1773305996378,3,1,0.0205078125,-0.01416015625,-0.970703125,-0.1220703125,0.54931640625,0.732421875,0,0,0,0.0,0.0,0.0,25.82,38,-33,-1994,-6,13,13,0.9710229849407918,0.9236295135755345
elevator-001,1773305996404,2026-03-12 16:59:56.404,1773305996403,1,1,0.0185546875,-0.01318359375,-0.97412109375,-0.18310546875,0.6103515625,0.67138671875,0,0,0,0.0,0.0,0.0,26.0,38,-33,-1994,-6,13,13,0.9743869810609561,0.925643975103949
elevator-001,1773305996437,2026-03-12 16:59:56.437,1773305996429,8,1,0.02001953125,-0.01416015625,-0.9736328125,-0.1220703125,0.67138671875,0.732421875,0,0,0,0.0,0.0,0.0,25.75,38,-33,-1994,-6,13,13,0.9739415512407068,1.0010509928501419
elevator-001,1773305996460,2026-03-12 16:59:56.460,1773305996453,7,1,0.017578125,-0.0107421875,-0.970703125,-0.244140625,0.6103515625,0.732421875,0,0,0,0.0,0.0,0.0,25.69,38,-33,-1994,-6,13,13,0.97092169712885,0.9841623227903503
elevator-001,1773305996483,2026-03-12 16:59:56.483,1773305996478,5,1,0.0185546875,-0.01318359375,-0.97021484375,-0.244140625,0.732421875,0.67138671875,0,0,0,0.0,0.0,0.0,25.88,38,-33,-1994,-6,13,13,0.9704818012746167,1.0231356576074346
elevator-001,1773305996505,2026-03-12 16:59:56.505,1773305996504,1,1,0.01708984375,-0.01318359375,-0.9716796875,-0.30517578125,0.9765625,0.67138671875,0,0,0,0.0,0.0,0.0,25.88,38,-33,-1994,-6,13,13,0.9719193819467035,1.223751077622279
elevator-001,1773305996528,2026-03-12 16:59:56.528,1773305996528,0,1,0.01904296875,-0.01416015625,-0.97265625,-0.3662109375,0.732421875,0.732421875,0,0,0,0.0,0.0,0.0,25.88,38,-33,-1994,-6,13,13,0.9729456949634447,1.0986328125
elevator-001,1773305996561,2026-03-12 16:59:56.561,1773305996553,8,1,0.02001953125,-0.0126953125,-0.97021484375,-0.18310546875,0.67138671875,0.732421875,0,0,0,0.0,0.0,0.0,25.69,38,-33,-1994,-6,13,13,0.9705044026812961,1.0103116062772735
elevator-001,1773305996583,2026-03-12 16:59:56.583,1773305996579,4,1,0.01806640625,-0.017578125,-0.97314453125,-0.1220703125,0.732421875,0.67138671875,0,0,0,0.0,0.0,0.0,25.88,38,-33,-1994,-6,13,13,0.9734709365025173,1.0010509928501419
elevator-001,1773305996605,2026-03-12 16:59:56.605,1773305996603,2,1,0.01806640625,-0.01220703125,-0.97216796875,-0.3662109375,0.732421875,0.67138671875,0,0,0,0.0,0.0,0.0,25.88,38,-33,-1994,-6,13,13,0.972412446501087,1.0589203840879804
elevator-001,1773305996628,2026-03-12 16:59:56.628,1773305996628,0,1,0.01806640625,-0.0146484375,-0.97216796875,-0.244140625,0.67138671875,0.67138671875,0,0,0,0.0,0.0,0.0,25.69,38,-33,-1994,-6,13,13,0.972446158519577,0.9803697756475226
elevator-001,1773305996661,2026-03-12 16:59:56.661,1773305996654,7,1,0.01806640625,-0.009765625,-0.970703125,-0.18310546875,0.6103515625,0.67138671875,0,0,0,0.0,0.0,0.0,25.69,38,-33,-1994,-6,13,13,0.9709203465533083,0.925643975103949
elevator-001,1773305996684,2026-03-12 16:59:56.684,1773305996679,5,1,0.0185546875,-0.01416015625,-0.97265625,-0.244140625,0.732421875,0.732421875,0,0,0,0.0,0.0,0.0,25.75,38,-33,-1994,-6,13,13,0.972936260562484,1.0641843123878598
elevator-001,1773305996707,2026-03-12 16:59:56.707,1773305996703,4,1,0.017578125,-0.0107421875,-0.97119140625,-0.1220703125,0.732421875,0.79345703125,0,0,0,0.0,0.0,0.0,25.88,38,-33,-1994,-6,13,13,0.9714098685131077,1.0867000619363316
elevator-001,1773305996729,2026-03-12 16:59:56.729,1773305996728,1,1,0.01806640625,-0.01416015625,-0.970703125,-0.244140625,0.54931640625,0.54931640625,0,0,0,0.0,0.0,0.0,25.69,38,-33,-1994,-6,13,13,0.9709744908825257,0.8143105507889608
elevator-001,1773305996763,2026-03-12 16:59:56.763,1773305996754,9,1,0.01904296875,-0.01025390625,-0.97216796875,-0.1220703125,0.732421875,0.67138671875,0,0,0,0.0,0.0,0.0,25.56,38,-33,-1994,-6,13,13,0.9724085235721138,1.0010509928501419
elevator-001,1773305996786,2026-03-12 16:59:56.786,1773305996779,7,1,0.017578125,-0.0126953125,-0.9697265625,-0.244140625,0.67138671875,0.732421875,0,0,0,0.0,0.0,0.0,25.75,38,-33,-1994,-6,13,13,0.969968951800033,1.0231356576074346
elevator-001,1773305996809,2026-03-12 16:59:56.809,1773305996804,5,1,0.01708984375,-0.01318359375,-0.9736328125,0.0,0.79345703125,0.732421875,0,0,0,0.0,0.0,0.0,26.0,38,-33,-1994,-6,13,13,0.973872026233542,1.079822144345345
elevator-001,1773305996831,2026-03-12 16:59:56.831,1773305996828,3,1,0.01806640625,-0.0126953125,-0.970703125,-0.1220703125,0.732421875,0.67138671875,0,0,0,0.0,0.0,0.0,26.07,38,-33,-1994,-6,13,13,0.9709542331536685,1.0010509928501419
elevator-001,1773305996854,2026-03-12 16:59:56.854,1773305996854,0,1,0.01904296875,-0.01171875,-0.970703125,-0.30517578125,0.732421875,0.67138671875,0,0,0,0.0,0.0,0.0,25.88,38,-33,-1994,-6,13,13,0.9709606174532217,1.0393912576859377
elevator-001,1773305996887,2026-03-12 16:59:56.887,1773305996878,9,1,0.01904296875,-0.01318359375,-0.97216796875,-0.18310546875,0.79345703125,0.6103515625,0,0,0,0.0,0.0,0.0,25.88,38,-33,-1994,-6,13,13,0.9724438293631563,1.0176594238606609
elevator-001,1773305996909,2026-03-12 16:59:56.909,1773305996903,6,1,0.017578125,-0.0166015625,-0.970703125,-0.1220703125,0.67138671875,0.79345703125,0,0,0,0.0,0.0,0.0,25.69,38,-33,-1994,-6,13,13,0.9710042014536923,1.046534924284805
elevator-001,1773305996931,2026-03-12 16:59:56.931,1773305996928,3,1,0.01708984375,-0.0126953125,-0.97216796875,-0.06103515625,0.732421875,0.79345703125,0,0,0,0.0,0.0,0.0,25.75,38,-33,-1994,-6,13,13,0.9724010454449198,1.081545724284018
elevator-001,1773305996954,2026-03-12 16:59:56.954,1773305996953,1,1,0.01953125,-0.01220703125,-0.9755859375,-0.30517578125,0.732421875,0.79345703125,0,0,0,0.0,0.0,0.0,25.88,38,-33,-1994,-6,13,13,0.9758577779503809,1.1221176947540428
elevator-001,1773305996986,2026-03-12 16:59:56.986,1773305996978,8,1,0.01904296875,-0.01171875,-0.9697265625,-0.244140625,0.732421875,0.79345703125,0,0,0,0.0,0.0,0.0,25.82,38,-33,-1994,-6,13,13,0.9699843141919576,1.1070774625986972
elevator-001,1773305997008,2026-03-12 16:59:57.008,1773305997004,4,1,0.017578125,-0.0126953125,-0.9697265625,-0.18310546875,0.6103515625,0.67138671875,0,0,0,0.0,0.0,0.0,25.75,38,-33,-1994,-6,13,13,0.969968951800033,0.925643975103949
elevator-001,1773305997030,2026-03-12 16:59:57.030,1773305997029,1,1,0.01904296875,-0.0146484375,-0.970703125,-0.30517578125,0.79345703125,0.67138671875,0,0,0,0.0,0.0,0.0,25.88,38,-33,-1994,-6,13,13,0.9710003956048476,1.0832665618468535
elevator-001,1773305997063,2026-03-12 16:59:57.063,1773305997053,10,1,0.01708984375,-0.013671875,-0.970703125,-0.18310546875,0.67138671875,0.6103515625,0,0,0,0.0,0.0,0.0,25.63,38,-33,-1994,-6,13,13,0.9709498132293866,0.925643975103949
elevator-001,1773305997085,2026-03-12 16:59:57.085,1773305997078,7,1,0.01708984375,-0.01416015625,-0.97265625,-0.3662109375,0.6103515625,0.732421875,0,0,0,0.0,0.0,0.0,25.88,38,-33,-1994,-6,13,13,0.9729094271557277,1.021313508952729
elevator-001,1773305997107,2026-03-12 16:59:57.107,1773305997103,4,1,0.0205078125,-0.01708984375,-0.97216796875,-0.06103515625,0.732421875,0.79345703125,0,0,0,0.0,0.0,0.0,25.88,38,-33,-1994,-6,13,13,0.9725344171783513,1.081545724284018
elevator-001,1773305997129,2026-03-12 16:59:57.129,1773305997128,1,1,0.01953125,-0.0146484375,-0.9716796875,-0.18310546875,0.8544921875,0.732421875,0,0,0,0.0,0.0,0.0,25.69,38,-33,-1994,-6,13,13,0.9719863484369786,1.1402308161785526
elevator-001,1773305997161,2026-03-12 16:59:57.161,1773305997154,7,1,0.01806640625,-0.01025390625,-0.97265625,-0.244140625,0.732421875,0.8544921875,0,0,0,0.0,0.0,0.0,26.0,38,-33,-1994,-6,13,13,0.9728780593127981,1.1516090249092534
elevator-001,1773305997184,2026-03-12 16:59:57.184,1773305997179,5,1,0.01953125,-0.013671875,-0.970703125,-0.244140625,0.67138671875,0.732421875,0,0,0,0.0,0.0,0.0,25.82,38,-33,-1994,-6,13,13,0.9709958531205701,1.0231356576074346
elevator-001,1773305997206,2026-03-12 16:59:57.206,1773305997204,2,1,0.0185546875,-0.0107421875,-0.97021484375,-0.30517578125,0.6103515625,0.79345703125,0,0,0,0.0,0.0,0.0,25.69,38,-33,-1994,-6,13,13,0.9704517061932266,1.046534924284805
elevator-001,1773305997228,2026-03-12 16:59:57.228,1773305997228,0,1,0.0166015625,-0.013671875,-0.97314453125,-0.18310546875,0.67138671875,0.732421875,0,0,0,0.0,0.0,0.0,25.69,38,-33,-1994,-6,13,13,0.9733821504143372,1.0103116062772735
elevator-001,1773305997262,2026-03-12 16:59:57.262,1773305997253,9,1,0.01708984375,-0.01318359375,-0.96923828125,-0.244140625,0.732421875,0.79345703125,0,0,0,0.0,0.0,0.0,25.88,38,-33,-1994,-6,13,13,0.9694785793115899,1.1070774625986972
elevator-001,1773305997283,2026-03-12 16:59:57.283,1773305997279,4,1,0.01806640625,-0.015625,-0.970703125,0.0,0.732421875,0.67138671875,0,0,0,0.0,0.0,0.0,25.75,38,-33,-1994,-6,13,13,0.970996958051134,0.9935803586486637
elevator-001,1773305997306,2026-03-12 16:59:57.306,1773305997304,2,1,0.017578125,-0.0107421875,-0.9716796875,-0.244140625,0.54931640625,0.732421875,0,0,0,0.0,0.0,0.0,25.75,38,-33,-1994,-6,13,13,0.971898040007746,0.9475204282385269
elevator-001,1773305997329,2026-03-12 16:59:57.329,1773305997328,1,1,0.0185546875,-0.01318359375,-0.97021484375,-0.30517578125,0.6103515625,0.79345703125,0,0,0,0.0,0.0,0.0,25.82,38,-33,-1994,-6,13,13,0.9704818012746167,1.046534924284805
elevator-001,1773305997361,2026-03-12 16:59:57.361,1773305997354,7,1,0.0185546875,-0.01171875,-0.97021484375,-0.244140625,0.732421875,0.732421875,0,0,0,0.0,0.0,0.0,25.75,38,-33,-1994,-6,13,13,0.9704630073128094,1.0641843123878598
elevator-001,1773305997383,2026-03-12 16:59:57.383,1773305997378,5,1,0.01953125,-0.01513671875,-0.97119140625,-0.1220703125,0.732421875,0.79345703125,0,0,0,0.0,0.0,0.0,25.69,38,-33,-1994,-6,13,13,0.9715057063933962,1.0867000619363316
elevator-001,1773305997406,2026-03-12 16:59:57.406,1773305997403,3,1,0.015625,-0.01171875,-0.9716796875,-0.30517578125,0.732421875,0.8544921875,0,0,0,0.0,0.0,0.0,25.75,38,-33,-1994,-6,13,13,0.9718759616466806,1.1660750228602783
elevator-001,1773305997429,2026-03-12 16:59:57.429,1773305997428,1,1,0.01953125,-0.013671875,-0.97265625,-0.06103515625,0.67138671875,0.67138671875,0,0,0,0.0,0.0,0.0,25.63,38,-33,-1994,-6,13,13,0.9729483904897734,0.951443925056146
elevator-001,1773305997462,2026-03-12 16:59:57.462,1773305997454,8,1,0.017578125,-0.01220703125,-0.96923828125,-0.18310546875,0.732421875,0.79345703125,0,0,0,0.0,0.0,0.0,25.88,38,-33,-1994,-6,13,13,0.9694745215480952,1.0952367214920875
elevator-001,1773305997484,2026-03-12 16:59:57.484,1773305997478,6,1,0.01953125,-0.0107421875,-0.97314453125,-0.1220703125,0.67138671875,0.6103515625,0,0,0,0.0,0.0,0.0,25.69,38,-33,-1994,-6,13,13,0.9733997858129155,0.91552734375
elevator-001,1773305997508,2026-03-12 16:59:57.508,1773305997503,5,1,0.01513671875,-0.009765625,-0.97021484375,-0.18310546875,0.67138671875,0.732421875,0,0,0,0.0,0.0,0.0,25.75,38,-33,-1994,-6,13,13,0.970382053996772,1.0103116062772735
elevator-001,1773305997531,2026-03-12 16:59:57.531,1773305997529,2,1,0.01904296875,-0.0126953125,-0.97265625,-0.244140625,0.79345703125,0.79345703125,0,0,0,0.0,0.0,0.0,25.88,38,-33,-1994,-6,13,13,0.9729254782779351,1.1483696119523181
elevator-001,1773305997564,2026-03-12 16:59:57.564,1773305997554,10,1,0.01806640625,-0.01416015625,-0.96923828125,-0.244140625,0.6103515625,0.79345703125,0,0,0,0.0,0.0,0.0,26.0,38,-33,-1994,-6,13,13,0.9695100571424046,1.030392029793343
elevator-001,1773305997586,2026-03-12 16:59:57.586,1773305997578,8,1,0.01806640625,-0.01416015625,-0.97265625,-0.18310546875,0.6103515625,0.8544921875,0,0,0,0.0,0.0,0.0,25.88,38,-33,-1994,-6,13,13,0.9729270711229475,1.065933178501769
elevator-001,1773305997610,2026-03-12 16:59:57.610,1773305997604,6,1,0.0166015625,-0.01318359375,-0.96826171875,-0.18310546875,0.67138671875,0.6103515625,0,0,0,0.0,0.0,0.0,25.88,38,-33,-1994,-6,13,13,0.9684937661225861,0.925643975103949
elevator-001,1773305997633,2026-03-12 16:59:57.633,1773305997628,5,1,0.01953125,-0.01025390625,-0.97314453125,-0.06103515625,0.732421875,0.732421875,0,0,0,0.0,0.0,0.0,25.75,38,-33,-1994,-6,13,13,0.9733945197204105,1.03759765625
elevator-001,1773305997655,2026-03-12 16:59:57.655,1773305997654,1,1,0.01806640625,-0.01220703125,-0.9697265625,-0.30517578125,0.732421875,0.732421875,0,0,0,0.0,0.0,0.0,25.75,38,-33,-1994,-6,13,13,0.9699716555986545,1.079822144345345
elevator-001,1773305997688,2026-03-12 16:59:57.688,1773305997679,9,1,0.01953125,-0.0146484375,-0.97509765625,-0.18310546875,0.67138671875,0.67138671875,0,0,0,0.0,0.0,0.0,25.75,38,-33,-1994,-6,13,13,0.9754032425986685,0.9669787303317176
elevator-001,1773305997712,2026-03-12 16:59:57.712,1773305997703,9,1,0.017578125,-0.013671875,-0.97021484375,-0.244140625,0.79345703125,0.732421875,0,0,0,0.0,0.0,0.0,25.88,38,-33,-1994,-6,13,13,0.9704703775372889,1.1070774625986972
elevator-001,1773305997734,2026-03-12 16:59:57.734,1773305997728,6,1,0.02001953125,-0.01513671875,-0.96923828125,-0.18310546875,0.79345703125,0.79345703125,0,0,0,0.0,0.0,0.0,25.75,38,-33,-1994,-6,13,13,0.9695631736645325,1.1369589849973851
elevator-001,1773305997757,2026-03-12 16:59:57.757,1773305997754,3,1,0.017578125,-0.0126953125,-0.97119140625,-0.244140625,0.67138671875,0.732421875,0,0,0,0.0,0.0,0.0,25.63,38,-33,-1994,-6,13,13,0.9714334300464653,1.0231356576074346
elevator-001,1773305997779,2026-03-12 16:59:57.779,1773305997779,0,1,0.01806640625,-0.01416015625,-0.97021484375,-0.18310546875,0.79345703125,0.732421875,0,0,0,0.0,0.0,0.0,26.07,38,-33,-1994,-6,13,13,0.970486346164979,1.0952367214920875
elevator-001,1773305997812,2026-03-12 16:59:57.812,1773305997804,8,1,0.01953125,-0.01318359375,-0.974609375,-0.1220703125,0.732421875,0.732421875,0,0,0,0.0,0.0,0.0,25.75,38,-33,-1994,-6,13,13,0.9748942048800056,1.0429692071920815
elevator-001,1773305997834,2026-03-12 16:59:57.834,1773305997828,6,1,0.005859375,-0.0146484375,-0.9775390625,-0.3662109375,0.79345703125,0.67138671875,0,0,0,0.0,0.0,0.0,25.69,38,-33,-1994,-6,13,13,0.9776663683025826,1.1020184378215203
elevator-001,1773305997856,2026-03-12 16:59:57.856,1773305997853,3,1,0.02197265625,-0.013671875,-0.9736328125,-0.244140625,0.732421875,0.67138671875,0,0,0,0.0,0.0,0.0,25.82,38,-33,-1994,-6,13,13,0.9739766790664736,1.0231356576074346
elevator-001,1773305997878,2026-03-12 16:59:57.878,1773305997878,0,1,0.02978515625,-0.001953125,-0.9658203125,-0.1220703125,0.91552734375,0.732421875,0,0,0,0.0,0.0,0.0,26.0,38,-33,-1994,-6,13,13,0.9662814529254404,1.1787846628312968
elevator-001,1773305997911,2026-03-12 16:59:57.911,1773305997903,8,1,0.0205078125,-0.01611328125,-0.9736328125,-0.244140625,0.67138671875,0.67138671875,0,0,0,0.0,0.0,0.0,25.69,38,-33,-1994,-6,13,13,0.9739820644051085,0.9803697756475226
elevator-001,1773305997935,2026-03-12 16:59:57.935,1773305997928,7,1,0.01611328125,-0.01318359375,-0.97119140625,-0.18310546875,0.79345703125,0.6103515625,0,0,0,0.0,0.0,0.0,26.0,38,-33,-1994,-6,13,13,0.9714145317786116,1.0176594238606609
elevator-001,1773305997957,2026-03-12 16:59:57.957,1773305997954,3,1,0.02001953125,-0.013671875,-0.974609375,-0.244140625,0.732421875,0.67138671875,0,0,0,0.0,0.0,0.0,25.75,38,-33,-1994,-6,13,13,0.974910834710219,1.0231356576074346
elevator-001,1773305997979,2026-03-12 16:59:57.979,1773305997978,1,1,0.0205078125,-0.0126953125,-0.966796875,-0.244140625,0.6103515625,0.6103515625,0,0,0,0.0,0.0,0.0,25.88,38,-33,-1994,-6,13,13,0.9670976883659548,0.8970299351012615
elevator-001,1773305998012,2026-03-12 16:59:58.012,1773305998004,8,1,0.01953125,-0.01123046875,-0.966796875,-0.244140625,0.732421875,0.67138671875,0,0,0,0.0,0.0,0.0,25.69,38,-33,-1994,-6,13,13,0.9670593521933765,1.0231356576074346
elevator-001,1773305998035,2026-03-12 16:59:58.035,1773305998028,7,1,0.015625,-0.01611328125,-0.9755859375,-0.1220703125,0.67138671875,0.732421875,0,0,0,0.0,0.0,0.0,25.69,38,-33,-1994,-6,13,13,0.9758440961062353,1.0010509928501419
elevator-001,1773305998057,2026-03-12 16:59:58.057,1773305998053,4,1,0.017578125,-0.0107421875,-0.97216796875,-0.06103515625,0.54931640625,0.732421875,0,0,0,0.0,0.0,0.0,25.88,38,-33,-1994,-6,13,13,0.9723862116125987,0.9175595934065496
elevator-001,1773305998079,2026-03-12 16:59:58.079,1773305998078,1,1,0.0224609375,-0.009765625,-0.9697265625,-0.18310546875,0.67138671875,0.79345703125,0,0,0,0.0,0.0,0.0,25.69,38,-33,-1994,-6,13,13,0.9700358071551204,1.055396512804601
elevator-001,1773305998112,2026-03-12 16:59:58.112,1773305998104,8,1,0.01806640625,-0.013671875,-0.96923828125,-0.244140625,0.732421875,0.732421875,0,0,0,0.0,0.0,0.0,25.75,38,-33,-1994,-6,13,13,0.9695030484950833,1.0641843123878598
elevator-001,1773305998135,2026-03-12 16:59:58.135,1773305998128,7,1,0.01611328125,-0.01171875,-0.97802734375,-0.18310546875,0.8544921875,0.67138671875,0,0,0,0.0,0.0,0.0,25.75,38,-33,-1994,-6,13,13,0.9782302653551896,1.1020184378215203
elevator-001,1773305998158,2026-03-12 16:59:58.158,1773305998154,4,1,0.0185546875,-0.01416015625,-0.9736328125,-0.244140625,0.91552734375,0.8544921875,0,0,0,0.0,0.0,0.0,25.69,38,-33,-1994,-6,13,13,0.97391254229007,1.275912167991142
elevator-001,1773305998181,2026-03-12 16:59:58.181,1773305998179,2,1,0.02294921875,-0.0107421875,-0.97119140625,-0.1220703125,0.79345703125,0.732421875,0,0,0,0.0,0.0,0.0,25.88,38,-33,-1994,-6,13,13,0.971521903411021,1.0867000619363316
elevator-001,1773305998203,2026-03-12 16:59:58.203,1773305998203,0,1,0.0205078125,-0.013671875,-0.96875,-0.244140625,0.732421875,0.6103515625,0,0,0,0.0,0.0,0.0,25.69,38,-33,-1994,-6,13,13,0.969063492780298,0.9841623227903503
elevator-001,1773305998236,2026-03-12 16:59:58.236,1773305998229,7,1,0.01708984375,-0.01318359375,-0.96923828125,-0.3662109375,0.79345703125,0.732421875,0,0,0,0.0,0.0,0.0,25.75,38,-33,-1994,-6,13,13,0.9694785793115899,1.1402308161785526
elevator-001,1773305998258,2026-03-12 16:59:58.258,1773305998253,5,1,0.01708984375,-0.01416015625,-0.970703125,-0.244140625,0.91552734375,0.54931640625,0,0,0,0.0,0.0,0.0,25.69,38,-33,-1994,-6,13,13,0.9709568114335413,1.0952367214920875
elevator-001,1773305998280,2026-03-12 16:59:58.280,1773305998278,2,1,0.01806640625,-0.0126953125,-0.97216796875,-0.1220703125,0.79345703125,0.732421875,0,0,0,0.0,0.0,0.0,25.69,38,-33,-1994,-6,13,13,0.9724186986364277,1.0867000619363316
elevator-001,1773305998313,2026-03-12 16:59:58.313,1773305998304,9,1,0.02099609375,-0.0126953125,-0.9736328125,-0.18310546875,0.67138671875,0.79345703125,0,0,0,0.0,0.0,0.0,25.88,38,-33,-1994,-6,13,13,0.9739419184370758,1.055396512804601
elevator-001,1773305998335,2026-03-12 16:59:58.335,1773305998328,7,1,0.01708984375,-0.0126953125,-0.96875,-0.18310546875,0.79345703125,0.732421875,0,0,0,0.0,0.0,0.0,25.75,38,-33,-1994,-6,13,13,0.9689838988439756,1.0952367214920875
elevator-001,1773305998357,2026-03-12 16:59:58.357,1773305998354,3,1,0.01806640625,-0.013671875,-0.9755859375,-0.30517578125,0.79345703125,0.8544921875,0,0,0,0.0,0.0,0.0,25.88,38,-33,-1994,-6,13,13,0.9758489825011653,1.2053477574543152
elevator-001,1773305998379,2026-03-12 16:59:58.379,1773305998378,1,1,0.017578125,-0.0146484375,-0.97412109375,-0.1220703125,0.732421875,0.8544921875,0,0,0,0.0,0.0,0.0,25.88,38,-33,-1994,-6,13,13,0.9743897949426622,1.1320335077509405
elevator-001,1773305998412,2026-03-12 16:59:58.412,1773305998403,9,1,0.01611328125,-0.01123046875,-0.97119140625,-0.30517578125,0.67138671875,0.6103515625,0,0,0,0.0,0.0,0.0,25.75,38,-33,-1994,-6,13,13,0.9713899880248091,0.9572990198582838
elevator-001,1773305998434,2026-03-12 16:59:58.434,1773305998429,5,1,0.0185546875,-0.0126953125,-0.97216796875,-0.1220703125,0.732421875,0.67138671875,0,0,0,0.0,0.0,0.0,25.88,38,-33,-1994,-6,13,13,0.972427892880082,1.0010509928501419
elevator-001,1773305998457,2026-03-12 16:59:58.457,1773305998453,4,1,0.02001953125,-0.01171875,-0.97412109375,-0.18310546875,0.732421875,0.732421875,0,0,0,0.0,0.0,0.0,25.56,38,-33,-1994,-6,13,13,0.9743972578069627,1.0518608361580863
elevator-001,1773305998479,2026-03-12 16:59:58.479,1773305998478,1,1,0.02099609375,-0.01416015625,-0.97119140625,-0.244140625,0.91552734375,0.732421875,0,0,0,0.0,0.0,0.0,25.75,38,-33,-1994,-6,13,13,0.9715215352999829,1.1975962445281119
elevator-001,1773305998513,2026-03-12 16:59:58.513,1773305998503,10,1,0.01708984375,-0.0126953125,-0.96875,-0.1220703125,0.6103515625,0.732421875,0,0,0,0.0,0.0,0.0,25.56,38,-33,-1994,-6,13,13,0.9689838988439756,0.9611826018080823
elevator-001,1773305998535,2026-03-12 16:59:58.535,1773305998528,7,1,0.01708984375,-0.01513671875,-0.96923828125,-0.244140625,0.79345703125,0.6103515625,0,0,0,0.0,0.0,0.0,25.63,38,-33,-1994,-6,13,13,0.9695071061391815,1.030392029793343
elevator-001,1773305998558,2026-03-12 16:59:58.558,1773305998553,5,1,0.01904296875,-0.01220703125,-0.9716796875,-0.244140625,0.79345703125,0.732421875,0,0,0,0.0,0.0,0.0,25.69,38,-33,-1994,-6,13,13,0.9719429311285975,1.1070774625986972
elevator-001,1773305998580,2026-03-12 16:59:58.580,1773305998578,2,1,0.01953125,-0.0126953125,-0.9697265625,-0.30517578125,0.67138671875,0.67138671875,0,0,0,0.0,0.0,0.0,25.82,38,-33,-1994,-6,13,13,0.9700063127135315,0.9973226707988398
elevator-001,1773305998613,2026-03-12 16:59:58.613,1773305998603,10,1,0.01806640625,-0.01171875,-0.97314453125,-0.30517578125,0.79345703125,0.79345703125,0,0,0,0.0,0.0,0.0,25.75,38,-33,-1994,-6,13,13,0.9733827627599201,1.1628759084019562
elevator-001,1773305998635,2026-03-12 16:59:58.635,1773305998628,7,1,0.02001953125,-0.01416015625,-0.9716796875,-0.244140625,0.732421875,0.79345703125,0,0,0,0.0,0.0,0.0,25.75,38,-33,-1994,-6,13,13,0.9719890466237733,1.1070774625986972
elevator-001,1773305998657,2026-03-12 16:59:58.657,1773305998654,3,1,0.0185546875,-0.0146484375,-0.9697265625,-0.244140625,0.79345703125,0.732421875,0,0,0,0.0,0.0,0.0,25.69,38,-33,-1994,-6,13,13,0.9700146695630332,1.1070774625986972
elevator-001,1773305998680,2026-03-12 16:59:58.680,1773305998679,1,1,0.017578125,-0.01416015625,-0.97265625,-0.1220703125,0.54931640625,0.67138671875,0,0,0,0.0,0.0,0.0,25.69,38,-33,-1994,-6,13,13,0.9729181266517767,0.8760192928715408
elevator-001,1773305998712,2026-03-12 16:59:58.712,1773305998703,9,1,0.01904296875,-0.01318359375,-0.97119140625,-0.3662109375,0.6103515625,0.732421875,0,0,0,0.0,0.0,0.0,25.88,38,-33,-1994,-6,13,13,0.9714675441705868,1.021313508952729
elevator-001,1773305998734,2026-03-12 16:59:58.734,1773305998729,5,1,0.017578125,-0.0126953125,-0.97314453125,-0.244140625,0.6103515625,0.79345703125,0,0,0,0.0,0.0,0.0,25.75,38,-33,-1994,-6,13,13,0.9733860694194111,1.030392029793343
elevator-001,1773305998756,2026-03-12 16:59:58.756,1773305998753,3,1,0.01708984375,-0.01025390625,-0.97412109375,-0.244140625,0.67138671875,0.732421875,0,0,0,0.0,0.0,0.0,25.75,38,-33,-1994,-6,13,13,0.9743249512567558,1.0231356576074346
elevator-001,1773305998779,2026-03-12 16:59:58.779,1773305998779,0,1,0.0185546875,-0.01416015625,-0.9697265625,-0.1220703125,0.6103515625,0.67138671875,0,0,0,0.0,0.0,0.0,25.69,38,-33,-1994,-6,13,13,0.9700074187712759,0.91552734375
elevator-001,1773305998811,2026-03-12 16:59:58.811,1773305998804,7,1,0.0166015625,-0.01220703125,-0.97216796875,0.0,0.732421875,0.79345703125,0,0,0,0.0,0.0,0.0,25.88,38,-33,-1994,-6,13,13,0.9723863342071817,1.079822144345345
elevator-001,1773305998833,2026-03-12 16:59:58.833,1773305998829,4,1,0.01806640625,-0.01171875,-0.970703125,-0.18310546875,0.8544921875,0.79345703125,0,0,0,0.0,0.0,0.0,25.56,38,-33,-1994,-6,13,13,0.9709419555365388,1.1803637454720286
elevator-001,1773305998855,2026-03-12 16:59:58.855,1773305998853,2,1,0.015625,-0.01318359375,-0.97021484375,-0.1220703125,0.79345703125,0.732421875,0,0,0,0.0,0.0,0.0,25.69,38,-33,-1994,-6,13,13,0.9704302091351041,1.0867000619363316
elevator-001,1773305998888,2026-03-12 16:59:58.888,1773305998879,9,1,0.0185546875,-0.009765625,-0.97216796875,-0.244140625,0.67138671875,0.6103515625,0,0,0,0.0,0.0,0.0,25.88,38,-33,-1994,-6,13,13,0.9723940576347453,0.9396242870080964
elevator-001,1773305998910,2026-03-12 16:59:58.910,1773305998903,7,1,0.017578125,-0.01318359375,-0.970703125,-0.18310546875,0.67138671875,0.67138671875,0,0,0,0.0,0.0,0.0,25.75,38,-33,-1994,-6,13,13,0.9709517776426625,0.9669787303317176
elevator-001,1773305998932,2026-03-12 16:59:58.932,1773305998928,4,1,0.0166015625,-0.013671875,-0.9716796875,0.0,0.6103515625,0.732421875,0,0,0,0.0,0.0,0.0,25.69,38,-33,-1994,-6,13,13,0.9719176647965375,0.953399618640949
elevator-001,1773305998954,2026-03-12 16:59:58.954,1773305998953,1,1,0.0205078125,-0.01318359375,-0.97021484375,-0.18310546875,0.732421875,0.8544921875,0,0,0,0.0,0.0,0.0,25.75,38,-33,-1994,-6,13,13,0.9705211077305517,1.1402308161785526
elevator-001,1773305998986,2026-03-12 16:59:58.986,1773305998979,7,1,0.01904296875,-0.01416015625,-0.970703125,-0.244140625,0.8544921875,0.79345703125,0,0,0,0.0,0.0,0.0,25.69,38,-33,-1994,-6,13,13,0.9709931521738985,1.1913587216762167
elevator-001,1773305999008,2026-03-12 16:59:59.008,1773305999003,5,1,0.01708984375,-0.0107421875,-0.96923828125,-0.244140625,0.732421875,0.732421875,0,0,0,0.0,0.0,0.0,25.75,38,-33,-1994,-6,13,13,0.9694484530866706,1.0641843123878598
elevator-001,1773305999031,2026-03-12 16:59:59.031,1773305999029,2,1,0.01953125,-0.013671875,-0.97314453125,-0.1220703125,0.8544921875,0.67138671875,0,0,0,0.0,0.0,0.0,26.0,38,-33,-1994,-6,13,13,0.9734365252004675,1.0935347208965402
elevator-001,1773305999054,2026-03-12 16:59:59.054,1773305999053,1,1,0.0185546875,-0.01318359375,-0.97314453125,-0.244140625,0.732421875,0.79345703125,0,0,0,0.0,0.0,0.0,25.88,38,-33,-1994,-6,13,13,0.9734106853092224,1.1070774625986972
elevator-001,1773305999087,2026-03-12 16:59:59.087,1773305999079,8,1,0.01953125,-0.01220703125,-0.96875,-0.18310546875,0.732421875,0.67138671875,0,0,0,0.0,0.0,0.0,25.75,38,-33,-1994,-6,13,13,0.9690237581393456,1.0103116062772735
elevator-001,1773305999109,2026-03-12 16:59:59.109,1773305999104,5,1,0.0185546875,-0.01318359375,-0.97119140625,-0.06103515625,0.6103515625,0.67138671875,0,0,0,0.0,0.0,0.0,25.75,38,-33,-1994,-6,13,13,0.9714580954144344,0.9094033462982996
elevator-001,1773305999131,2026-03-12 16:59:59.131,1773305999129,2,1,0.0185546875,-0.01318359375,-0.9697265625,-0.06103515625,0.6103515625,0.79345703125,0,0,0,0.0,0.0,0.0,25.75,38,-33,-1994,-6,13,13,0.9699936544073132,1.0029099563693227
elevator-001,1773305999164,2026-03-12 16:59:59.164,1773305999154,10,1,0.021484375,-0.0107421875,-0.970703125,-0.18310546875,0.79345703125,0.79345703125,0,0,0,0.0,0.0,0.0,25.63,38,-33,-1994,-6,13,13,0.9710002728352817,1.1369589849973851
elevator-001,1773305999187,2026-03-12 16:59:59.187,1773305999179,8,1,0.01806640625,-0.0126953125,-0.97119140625,-0.244140625,0.732421875,0.6103515625,0,0,0,0.0,0.0,0.0,25.88,38,-33,-1994,-6,13,13,0.9714423881878509,0.9841623227903503
elevator-001,1773305999210,2026-03-12 16:59:59.210,1773305999203,7,1,0.017578125,-0.01123046875,-0.97265625,0.0,0.79345703125,0.67138671875,0,0,0,0.0,0.0,0.0,25.88,38,-33,-1994,-6,13,13,0.9728798973002386,1.0393912576859377
elevator-001,1773305999232,2026-03-12 16:59:59.232,1773305999228,4,1,0.0185546875,-0.01416015625,-0.96923828125,-0.1220703125,0.732421875,0.732421875,0,0,0,0.0,0.0,0.0,25.75,38,-33,-1994,-6,13,13,0.9695192789695836,1.0429692071920815
elevator-001,1773305999254,2026-03-12 16:59:59.254,1773305999253,1,1,0.01953125,-0.01220703125,-0.970703125,-0.18310546875,0.67138671875,0.6103515625,0,0,0,0.0,0.0,0.0,25.88,38,-33,-1994,-6,13,13,0.9709763324732826,0.925643975103949
elevator-001,1773305999287,2026-03-12 16:59:59.287,1773305999278,9,1,0.0205078125,-0.009765625,-0.97265625,-0.18310546875,0.8544921875,0.732421875,0,0,0,0.0,0.0,0.0,25.63,38,-33,-1994,-6,13,13,0.9729214348904224,1.1402308161785526
elevator-001,1773305999309,2026-03-12 16:59:59.309,1773305999304,5,1,0.0185546875,-0.013671875,-0.96923828125,-0.244140625,0.732421875,0.732421875,0,0,0,0.0,0.0,0.0,25.31,38,-33,-1994,-6,13,13,0.9695122703889273,1.0641843123878598
elevator-001,1773305999332,2026-03-12 16:59:59.332,1773305999328,4,1,0.01904296875,-0.01513671875,-0.97119140625,-0.3662109375,0.67138671875,0.67138671875,0,0,0,0.0,0.0,0.0,25.69,38,-33,-1994,-6,13,13,0.9714960125945874,1.0176594238606609
elevator-001,1773305999354,2026-03-12 16:59:59.354,1773305999353,1,1,0.01708984375,-0.01318359375,-0.97021484375,-0.244140625,0.79345703125,0.79345703125,0,0,0,0.0,0.0,0.0,25.88,38,-33,-1994,-6,13,13,0.9704549000012321,1.1483696119523181
elevator-001,1773305999389,2026-03-12 16:59:59.389,1773305999379,10,1,0.01953125,-0.0166015625,-0.9716796875,-0.1220703125,0.6103515625,0.79345703125,0,0,0,0.0,0.0,0.0,26.07,38,-33,-1994,-6,13,13,0.9720177450561803,1.0084662867345158
elevator-001,1773305999411,2026-03-12 16:59:59.411,1773305999404,7,1,0.01806640625,-0.01171875,-0.97265625,-0.18310546875,0.732421875,0.732421875,0,0,0,0.0,0.0,0.0,25.88,38,-33,-1994,-6,13,13,0.9728946010747593,1.0518608361580863
elevator-001,1773305999433,2026-03-12 16:59:59.433,1773305999429,4,1,0.01904296875,-0.01123046875,-0.97216796875,-0.06103515625,0.732421875,0.732421875,0,0,0,0.0,0.0,0.0,25.69,38,-33,-1994,-6,13,13,0.9724193115887092,1.03759765625
elevator-001,1773305999456,2026-03-12 16:59:59.456,1773305999453,3,1,0.01953125,-0.01123046875,-0.97607421875,-0.30517578125,0.732421875,0.67138671875,0,0,0,0.0,0.0,0.0,26.0,38,-33,-1994,-6,13,13,0.9763342018301572,1.0393912576859377
elevator-001,1773305999479,2026-03-12 16:59:59.479,1773305999479,0,1,0.0166015625,-0.0107421875,-0.96728515625,-0.1220703125,0.91552734375,0.79345703125,0,0,0,0.0,0.0,0.0,25.69,38,-33,-1994,-6,13,13,0.9674872505471653,1.2176475429235842
elevator-001,1773305999512,2026-03-12 16:59:59.512,1773305999504,8,1,0.0205078125,-0.0166015625,-0.9736328125,-0.244140625,0.91552734375,0.8544921875,0,0,0,0.0,0.0,0.0,25.75,38,-33,-1994,-6,13,13,0.973990264749929,1.275912167991142
elevator-001,1773305999536,2026-03-12 16:59:59.536,1773305999529,7,1,0.01953125,-0.01416015625,-0.97119140625,-0.06103515625,0.54931640625,0.79345703125,0,0,0,0.0,0.0,0.0,25.88,38,-33,-1994,-6,13,13,0.9714909815975851,0.9669787303317176
elevator-001,1773305999558,2026-03-12 16:59:59.558,1773305999553,5,1,0.01904296875,-0.0126953125,-0.97021484375,-0.1220703125,0.732421875,0.67138671875,0,0,0,0.0,0.0,0.0,25.69,38,-33,-1994,-6,13,13,0.9704847493140338,1.0010509928501419
elevator-001,1773305999580,2026-03-12 16:59:59.580,1773305999578,2,1,0.01708984375,-0.01123046875,-0.96826171875,0.0,0.6103515625,0.79345703125,0,0,0,0.0,0.0,0.0,25.88,38,-33,-1994,-6,13,13,0.9684776415511347,1.0010509928501419
elevator-001,1773305999604,2026-03-12 16:59:59.604,1773305999603,1,1,0.0166015625,-0.0146484375,-0.96875,-0.3662109375,0.732421875,0.67138671875,0,0,0,0.0,0.0,0.0,25.75,38,-33,-1994,-6,13,13,0.9690029675386101,1.0589203840879804
elevator-001,1773305999637,2026-03-12 16:59:59.637,1773305999629,8,1,0.017578125,-0.0126953125,-0.97265625,-0.30517578125,0.67138671875,0.67138671875,0,0,0,0.0,0.0,0.0,25.82,38,-33,-1994,-6,13,13,0.9728979093934013,0.9973226707988398
elevator-001,1773305999659,2026-03-12 16:59:59.659,1773305999654,5,1,0.01904296875,-0.013671875,-0.97265625,-0.18310546875,0.79345703125,0.732421875,0,0,0,0.0,0.0,0.0,25.63,38,-33,-1994,-6,13,13,0.9729387110650349,1.0952367214920875
elevator-001,1773305999681,2026-03-12 16:59:59.681,1773305999678,3,1,0.02099609375,-0.013671875,-0.97119140625,-0.18310546875,0.79345703125,0.732421875,0,0,0,0.0,0.0,0.0,25.69,38,-33,-1994,-6,13,13,0.9715145411637579,1.0952367214920875
elevator-001,1773305999714,2026-03-12 16:59:59.714,1773305999704,10,1,0.02001953125,-0.0126953125,-0.97265625,-0.244140625,0.8544921875,0.732421875,0,0,0,0.0,0.0,0.0,25.63,38,-33,-1994,-6,13,13,0.9729450823427831,1.1516090249092534
elevator-001,1773305999736,2026-03-12 16:59:59.736,1773305999729,7,1,0.01904296875,-0.0146484375,-0.96923828125,-0.1220703125,0.732421875,0.79345703125,0,0,0,0.0,0.0,0.0,25.82,38,-33,-1994,-6,13,13,0.969536000992464,1.0867000619363316
elevator-001,1773305999758,2026-03-12 16:59:59.758,1773305999753,5,1,0.01806640625,-0.01171875,-0.97265625,-0.244140625,0.67138671875,0.79345703125,0,0,0,0.0,0.0,0.0,25.69,38,-33,-1994,-6,13,13,0.9728946010747593,1.0676791799643495
elevator-001,1773305999780,2026-03-12 16:59:59.780,1773305999778,2,1,0.0185546875,-0.01416015625,-0.97314453125,-0.1220703125,0.67138671875,0.732421875,0,0,0,0.0,0.0,0.0,25.56,38,-33,-1994,-6,13,13,0.9734244013558676,1.0010509928501419
elevator-001,1773305999803,2026-03-12 16:59:59.803,1773305999803,0,1,0.01806640625,-0.0146484375,-0.97216796875,-0.244140625,0.79345703125,0.732421875,0,0,0,0.0,0.0,0.0,25.88,38,-33,-1994,-6,13,13,0.972446158519577,1.1070774625986972
elevator-001,1773305999837,2026-03-12 16:59:59.837,1773305999828,9,1,0.01806640625,-0.01513671875,-0.97021484375,-0.244140625,0.6103515625,0.79345703125,0,0,0,0.0,0.0,0.0,25.69,38,-33,-1994,-6,13,13,0.9705010862034846,1.030392029793343
elevator-001,1773305999859,2026-03-12 16:59:59.859,1773305999853,6,1,0.0185546875,-0.0107421875,-0.9716796875,-0.1220703125,0.67138671875,0.732421875,0,0,0,0.0,0.0,0.0,25.88,38,-33,-1994,-6,13,13,0.9719161929511235,1.0010509928501419
elevator-001,1773305999881,2026-03-12 16:59:59.881,1773305999879,2,1,0.02099609375,-0.0126953125,-0.9716796875,-0.18310546875,0.67138671875,0.8544921875,0,0,0,0.0,0.0,0.0,25.56,38,-33,-1994,-6,13,13,0.9719894145577559,1.1020184378215203
elevator-001,1773305999904,2026-03-12 16:59:59.904,1773305999904,0,1,0.0166015625,-0.0126953125,-0.97216796875,-0.06103515625,0.732421875,0.67138671875,0,0,0,0.0,0.0,0.0,25.88,38,-33,-1994,-6,13,13,0.972392586510415,0.9954532733337458
elevator-001,1773305999937,2026-03-12 16:59:59.937,1773305999928,9,1,0.017578125,-0.01171875,-0.97216796875,-0.18310546875,0.6103515625,0.67138671875,0,0,0,0.0,0.0,0.0,25.63,38,-33,-1994,-6,13,13,0.972397490249527,0.925643975103949
elevator-001,1773305999959,2026-03-12 16:59:59.959,1773305999954,5,1,0.01904296875,-0.01123046875,-0.9677734375,-0.30517578125,0.67138671875,0.79345703125,0,0,0,0.0,0.0,0.0,25.88,38,-33,-1994,-6,13,13,0.9680259213563057,1.0832665618468535
elevator-001,1773305999981,2026-03-12 16:59:59.981,1773305999979,2,1,0.0185546875,-0.01318359375,-0.96826171875,-0.30517578125,0.6103515625,0.732421875,0,0,0,0.0,0.0,0.0,25.75,38,-33,-1994,-6,13,13,0.9685292146182746,1.0010509928501419
elevator-001,1773306000013,2026-03-12 17:00:00.013,1773306000004,9,1,0.01904296875,-0.013671875,-0.97265625,-0.18310546875,0.732421875,0.732421875,0,0,0,0.0,0.0,0.0,25.75,38,-33,-1994,-6,13,13,0.9729387110650349,1.0518608361580863
elevator-001,1773306000035,2026-03-12 17:00:00.035,1773306000028,7,1,0.01953125,-0.01806640625,-0.9716796875,-0.30517578125,0.732421875,0.79345703125,0,0,0,0.0,0.0,0.0,25.88,38,-33,-1994,-6,13,13,0.9720438672516021,1.1221176947540428
elevator-001,1773306000058,2026-03-12 17:00:00.058,1773306000054,4,1,0.01806640625,-0.01220703125,-0.9697265625,-0.1220703125,0.732421875,0.8544921875,0,0,0,0.0,0.0,0.0,25.75,38,-33,-1994,-6,13,13,0.9699716555986545,1.1320335077509405
elevator-001,1773306000080,2026-03-12 17:00:00.080,1773306000078,2,1,0.01953125,-0.0107421875,-0.97265625,-0.30517578125,0.67138671875,0.6103515625,0,0,0,0.0,0.0,0.0,25.88,38,-33,-1994,-6,13,13,0.972911632669129,0.9572990198582838
elevator-001,1773306000112,2026-03-12 17:00:00.112,1773306000103,9,1,0.01806640625,-0.01171875,-0.9697265625,-0.244140625,0.8544921875,0.732421875,0,0,0,0.0,0.0,0.0,25.88,38,-33,-1994,-6,13,13,0.9699656334914237,1.1516090249092534
elevator-001,1773306000135,2026-03-12 17:00:00.135,1773306000128,7,1,0.01953125,-0.01318359375,-0.970703125,-0.18310546875,0.8544921875,0.732421875,0,0,0,0.0,0.0,0.0,25.63,38,-33,-1994,-6,13,13,0.9709891007398039,1.1402308161785526
elevator-001,1773306000158,2026-03-12 17:00:00.158,1773306000153,5,1,0.01904296875,-0.013671875,-0.97265625,-0.18310546875,0.79345703125,0.8544921875,0,0,0,0.0,0.0,0.0,25.88,38,-33,-1994,-6,13,13,0.9729387110650349,1.1803637454720286
elevator-001,1773306000181,2026-03-12 17:00:00.181,1773306000178,3,1,0.017578125,-0.01318359375,-0.97265625,-0.30517578125,0.67138671875,0.732421875,0,0,0,0.0,0.0,0.0,25.75,38,-33,-1994,-6,13,13,0.9729044034676496,1.0393912576859377
elevator-001,1773306000205,2026-03-12 17:00:00.205,1773306000203,2,1,0.0185546875,-0.01123046875,-0.96923828125,-0.18310546875,0.67138671875,0.67138671875,0,0,0,0.0,0.0,0.0,25.82,38,-33,-1994,-6,13,13,0.9694809155919581,0.9669787303317176
elevator-001,1773306000237,2026-03-12 17:00:00.237,1773306000228,9,1,0.01708984375,-0.00927734375,-0.97216796875,-0.30517578125,0.67138671875,0.67138671875,0,0,0,0.0,0.0,0.0,25.69,38,-33,-1994,-6,13,13,0.9723624279711531,0.9973226707988398
elevator-001,1773306000260,2026-03-12 17:00:00.260,1773306000253,7,1,0.02099609375,-0.0146484375,-0.9697265625,-0.1220703125,0.6103515625,0.732421875,0,0,0,0.0,0.0,0.0,25.5,38,-33,-1994,-6,13,13,0.9700644404842478,0.9611826018080823
elevator-001,1773306000283,2026-03-12 17:00:00.283,1773306000278,5,1,0.017578125,-0.01318359375,-0.9697265625,-0.1220703125,0.79345703125,0.67138671875,0,0,0,0.0,0.0,0.0,25.88,38,-33,-1994,-6,13,13,0.9699754654839199,1.046534924284805
elevator-001,1773306000305,2026-03-12 17:00:00.305,1773306000304,1,1,0.02099609375,-0.013671875,-0.97119140625,-0.244140625,0.79345703125,0.79345703125,0,0,0,0.0,0.0,0.0,26.0,38,-33,-1994,-6,13,13,0.9715145411637579,1.1483696119523181
elevator-001,1773306000338,2026-03-12 17:00:00.338,1773306000329,9,1,0.0185546875,-0.01220703125,-0.97119140625,-0.30517578125,0.6103515625,0.67138671875,0,0,0,0.0,0.0,0.0,25.69,38,-33,-1994,-6,13,13,0.9714453333121806,0.9572990198582838
elevator-001,1773306000360,2026-03-12 17:00:00.360,1773306000353,7,1,0.0185546875,-0.01171875,-0.97119140625,-0.244140625,0.732421875,0.67138671875,0,0,0,0.0,0.0,0.0,25.69,38,-33,-1994,-6,13,13,0.971439320340513,1.0231356576074346
elevator-001,1773306000384,2026-03-12 17:00:00.384,1773306000379,5,1,0.01708984375,-0.0126953125,-0.9736328125,-0.244140625,0.67138671875,0.79345703125,0,0,0,0.0,0.0,0.0,26.0,38,-33,-1994,-6,13,13,0.9738655386117389,1.0676791799643495
elevator-001,1773306000407,2026-03-12 17:00:00.407,1773306000403,4,1,0.02099609375,-0.013671875,-0.96826171875,-0.18310546875,0.732421875,0.67138671875,0,0,0,0.0,0.0,0.0,25.75,38,-33,-1994,-6,13,13,0.9685858310524053,1.0103116062772735
elevator-001,1773306000429,2026-03-12 17:00:00.429,1773306000428,1,1,0.01806640625,-0.013671875,-0.9736328125,-0.1220703125,0.79345703125,0.79345703125,0,0,0,0.0,0.0,0.0,25.56,38,-33,-1994,-6,13,13,0.9738963850315216,1.1287379155826984
elevator-001,1773306000465,2026-03-12 17:00:00.465,1773306000456,9,1,0.01806640625,-0.0146484375,-0.97119140625,-0.18310546875,0.79345703125,0.8544921875,0,0,0,0.0,0.0,0.0,25.88,38,-33,-1994,-6,13,13,0.971469875667709,1.1803637454720286
elevator-001,1773306000481,2026-03-12 17:00:00.481,1773306000481,0,1,0.01806640625,-0.01220703125,-0.97216796875,-0.18310546875,0.732421875,0.8544921875,0,0,0,0.0,0.0,0.0,25.82,38,-33,-1994,-6,13,13,0.972412446501087,1.1402308161785526
elevator-001,1773306000507,2026-03-12 17:00:00.507,1773306000503,4,1,0.01611328125,-0.01220703125,-0.97021484375,-0.18310546875,0.732421875,0.732421875,0,0,0,0.0,0.0,0.0,25.82,38,-33,-1994,-6,13,13,0.9704254182972626,1.0518608361580863
elevator-001,1773306000533,2026-03-12 17:00:00.533,1773306000529,4,1,0.017578125,-0.0126953125,-0.97119140625,-0.18310546875,0.8544921875,0.79345703125,0,0,0,0.0,0.0,0.0,25.69,38,-33,-1994,-6,13,13,0.9714334300464653,1.1803637454720286
elevator-001,1773306000558,2026-03-12 17:00:00.558,1773306000554,4,1,0.01904296875,-0.013671875,-0.97119140625,-0.1220703125,0.732421875,0.79345703125,0,0,0,0.0,0.0,0.0,25.88,38,-33,-1994,-6,13,13,0.9714742932258587,1.0867000619363316
elevator-001,1773306000585,2026-03-12 17:00:00.585,1773306000580,5,1,0.0185546875,-0.01171875,-0.97216796875,-0.18310546875,0.732421875,0.79345703125,0,0,0,0.0,0.0,0.0,25.88,38,-33,-1994,-6,13,13,0.9724156338692247,1.0952367214920875
elevator-001,1773306000611,2026-03-12 17:00:00.611,1773306000603,8,1,0.01806640625,-0.0107421875,-0.9697265625,-0.3662109375,0.67138671875,0.6103515625,0,0,0,0.0,0.0,0.0,25.88,38,-33,-1994,-6,13,13,0.9699543265768453,0.9784679896167845
elevator-001,1773306000636,2026-03-12 17:00:00.636,1773306000629,7,1,0.01806640625,-0.01416015625,-0.9716796875,-0.244140625,0.6103515625,0.732421875,0,0,0,0.0,0.0,0.0,25.75,38,-33,-1994,-6,13,13,0.9719507807291026,0.9841623227903503
elevator-001,1773306000663,2026-03-12 17:00:00.663,1773306000654,9,1,0.01904296875,-0.01318359375,-0.97119140625,-0.18310546875,0.79345703125,0.732421875,0,0,0,0.0,0.0,0.0,25.69,38,-33,-1994,-6,13,13,0.9714675441705868,1.0952367214920875
elevator-001,1773306000686,2026-03-12 17:00:00.686,1773306000678,8,1,0.01904296875,-0.013671875,-0.97265625,-0.1220703125,0.732421875,0.732421875,0,0,0,0.0,0.0,0.0,25.82,38,-33,-1994,-6,13,13,0.9729387110650349,1.0429692071920815
elevator-001,1773306000708,2026-03-12 17:00:00.708,1773306000703,5,1,0.02001953125,-0.015625,-0.97021484375,-0.06103515625,0.8544921875,0.732421875,0,0,0,0.0,0.0,0.0,25.82,38,-33,-1994,-6,13,13,0.9705471473809537,1.1270865058971795
elevator-001,1773306000730,2026-03-12 17:00:00.730,1773306000729,1,1,0.0205078125,-0.013671875,-0.97021484375,-0.244140625,0.732421875,0.67138671875,0,0,0,0.0,0.0,0.0,25.82,38,-33,-1994,-6,13,13,0.970527863367347,1.0231356576074346
elevator-001,1773306000762,2026-03-12 17:00:00.762,1773306000753,9,1,0.017578125,-0.0146484375,-0.9677734375,-0.1220703125,0.67138671875,0.67138671875,0,0,0,0.0,0.0,0.0,25.69,38,-33,-1994,-6,13,13,0.9680439006213889,0.9572990198582838
elevator-001,1773306000784,2026-03-12 17:00:00.784,1773306000779,5,1,0.01904296875,-0.01318359375,-0.96923828125,-0.244140625,0.79345703125,0.8544921875,0,0,0,0.0,0.0,0.0,25.82,38,-33,-1994,-6,13,13,0.9695149754611492,1.1913587216762167
elevator-001,1773306000806,2026-03-12 17:00:00.806,1773306000803,3,1,0.01806640625,-0.01220703125,-0.97216796875,-0.244140625,0.732421875,0.67138671875,0,0,0,0.0,0.0,0.0,25.75,38,-33,-1994,-6,13,13,0.972412446501087,1.0231356576074346
elevator-001,1773306000828,2026-03-12 17:00:00.828,1773306000828,0,1,0.01806640625,-0.0126953125,-0.97314453125,-0.1220703125,0.67138671875,0.67138671875,0,0,0,0.0,0.0,0.0,25.69,38,-33,-1994,-6,13,13,0.9733950095906825,0.9572990198582838
elevator-001,1773306000861,2026-03-12 17:00:00.861,1773306000853,8,1,0.0185546875,-0.01318359375,-0.9716796875,-0.18310546875,0.67138671875,0.79345703125,0,0,0,0.0,0.0,0.0,25.75,38,-33,-1994,-6,13,13,0.9719462426865415,1.055396512804601
elevator-001,1773306000883,2026-03-12 17:00:00.883,1773306000879,4,1,0.01708984375,-0.01416015625,-0.970703125,-0.18310546875,0.732421875,0.67138671875,0,0,0,0.0,0.0,0.0,25.75,38,-33,-1994,-6,13,13,0.9709568114335413,1.0103116062772735
elevator-001,1773306000905,2026-03-12 17:00:00.905,1773306000904,1,1,0.01708984375,-0.0126953125,-0.97119140625,-0.3662109375,0.67138671875,0.732421875,0,0,0,0.0,0.0,0.0,26.0,38,-33,-1994,-6,13,13,0.9714247172543659,1.0589203840879804
elevator-001,1773306000937,2026-03-12 17:00:00.937,1773306000928,9,1,0.02001953125,-0.01318359375,-0.96923828125,-0.244140625,0.79345703125,0.79345703125,0,0,0,0.0,0.0,0.0,25.88,38,-33,-1994,-6,13,13,0.9695346484866277,1.1483696119523181
elevator-001,1773306000959,2026-03-12 17:00:00.959,1773306000953,6,1,0.015625,-0.0146484375,-0.970703125,-0.1220703125,0.732421875,0.79345703125,0,0,0,0.0,0.0,0.0,25.88,38,-33,-1994,-6,13,13,0.9709393772172169,1.0867000619363316
elevator-001,1773306000983,2026-03-12 17:00:00.983,1773306000978,5,1,0.0185546875,-0.01416015625,-0.97216796875,-0.18310546875,0.67138671875,0.67138671875,0,0,0,0.0,0.0,0.0,25.63,38,-33,-1994,-6,13,13,0.9724481199101308,0.9669787303317176
elevator-001,1773306001004,2026-03-12 17:00:01.004,1773306001003,1,1,0.017578125,-0.0146484375,-0.96826171875,-0.1220703125,0.79345703125,0.67138671875,0,0,0,0.0,0.0,0.0,25.88,38,-33,-1994,-6,13,13,0.9685320455185833,1.046534924284805
elevator-001,1773306001037,2026-03-12 17:00:01.037,1773306001028,9,1,0.01806640625,-0.01220703125,-0.974609375,-0.244140625,0.48828125,0.67138671875,0,0,0,0.0,0.0,0.0,25.63,38,-33,-1994,-6,13,13,0.9748532404852636,0.8653226854710586
elevator-001,1773306001059,2026-03-12 17:00:01.059,1773306001054,5,1,0.0185546875,-0.01416015625,-0.97119140625,-0.42724609375,0.67138671875,0.67138671875,0,0,0,0.0,0.0,0.0,25.75,38,-33,-1994,-6,13,13,0.9714718390293666,1.0411817693623036
elevator-001,1773306001081,2026-03-12 17:00:01.081,1773306001078,3,1,0.0185546875,-0.01220703125,-0.97119140625,-0.244140625,0.54931640625,0.732421875,0,0,0,0.0,0.0,0.0,25.75,38,-33,-1994,-6,13,13,0.9714453333121806,0.9475204282385269
elevator-001,1773306001113,2026-03-12 17:00:01.113,1773306001104,9,1,0.01904296875,-0.01416015625,-0.97216796875,-0.18310546875,0.8544921875,0.67138671875,0,0,0,0.0,0.0,0.0,25.75,38,-33,-1994,-6,13,13,0.9724575590468403,1.1020184378215203
elevator-001,1773306001136,2026-03-12 17:00:01.136,1773306001128,8,1,0.0185546875,-0.01171875,-0.974609375,-0.18310546875,0.732421875,0.732421875,0,0,0,0.0,0.0,0.0,25.69,38,-33,-1994,-6,13,13,0.9748564198730374,1.0518608361580863
elevator-001,1773306001159,2026-03-12 17:00:01.159,1773306001154,5,1,0.0185546875,-0.013671875,-0.970703125,-0.1220703125,0.6103515625,0.67138671875,0,0,0,0.0,0.0,0.0,25.69,38,-33,-1994,-6,13,13,0.9709767007910148,0.91552734375
elevator-001,1773306001181,2026-03-12 17:00:01.181,1773306001179,2,1,0.0166015625,-0.01220703125,-0.97021484375,-0.1220703125,0.54931640625,0.732421875,0,0,0,0.0,0.0,0.0,25.88,38,-33,-1994,-6,13,13,0.9704336486964046,0.9236295135755345
elevator-001,1773306001204,2026-03-12 17:00:01.204,1773306001203,1,1,0.02001953125,-0.01171875,-0.9697265625,-0.30517578125,0.8544921875,0.732421875,0,0,0,0.0,0.0,0.0,25.88,38,-33,-1994,-6,13,13,0.9700039776985961,1.1660750228602783
elevator-001,1773306001237,2026-03-12 17:00:01.237,1773306001228,9,1,0.01953125,-0.01318359375,-0.97265625,-0.18310546875,0.6103515625,0.732421875,0,0,0,0.0,0.0,0.0,25.88,38,-33,-1994,-6,13,13,0.9729416516599493,0.9708235913444132
elevator-001,1773306001260,2026-03-12 17:00:01.260,1773306001253,7,1,0.02001953125,-0.013671875,-0.974609375,-0.1220703125,0.79345703125,0.732421875,0,0,0,0.0,0.0,0.0,25.82,38,-33,-1994,-6,13,13,0.974910834710219,1.0867000619363316
elevator-001,1773306001282,2026-03-12 17:00:01.282,1773306001278,4,1,0.01611328125,-0.01123046875,-0.97216796875,-0.06103515625,0.732421875,0.67138671875,0,0,0,0.0,0.0,0.0,25.75,38,-33,-1994,-6,13,13,0.9723663510860951,0.9954532733337458
elevator-001,1773306001308,2026-03-12 17:00:01.308,1773306001305,3,1,0.0166015625,-0.0126953125,-0.97216796875,-0.244140625,0.732421875,0.732421875,0,0,0,0.0,0.0,0.0,25.88,38,-33,-1994,-6,13,13,0.972392586510415,1.0641843123878598
elevator-001,1773306001331,2026-03-12 17:00:01.331,1773306001328,3,1,0.017578125,-0.01171875,-0.97216796875,-0.1220703125,0.79345703125,0.732421875,0,0,0,0.0,0.0,0.0,26.13,38,-33,-1994,-6,13,13,0.972397490249527,1.0867000619363316
elevator-001,1773306001354,2026-03-12 17:00:01.354,1773306001353,1,1,0.017578125,-0.01220703125,-0.970703125,-0.06103515625,0.732421875,0.8544921875,0,0,0,0.0,0.0,0.0,25.75,38,-33,-1994,-6,13,13,0.9709390088853262,1.1270865058971795
elevator-001,1773306001387,2026-03-12 17:00:01.387,1773306001379,8,1,0.01708984375,-0.013671875,-0.97216796875,-0.18310546875,0.67138671875,0.67138671875,0,0,0,0.0,0.0,0.0,25.88,38,-33,-1994,-6,13,13,0.9724142853685953,0.9669787303317176
elevator-001,1773306001409,2026-03-12 17:00:01.409,1773306001403,6,1,0.01904296875,-0.0146484375,-0.9697265625,-0.244140625,0.67138671875,0.67138671875,0,0,0,0.0,0.0,0.0,25.88,38,-33,-1994,-6,13,13,0.9700241323792266,0.9803697756475226
elevator-001,1773306001431,2026-03-12 17:00:01.431,1773306001428,3,1,0.0185546875,-0.013671875,-0.96826171875,-0.18310546875,0.79345703125,0.67138671875,0,0,0,0.0,0.0,0.0,25.75,38,-33,-1994,-6,13,13,0.9685359841487265,1.055396512804601
elevator-001,1773306001454,2026-03-12 17:00:01.454,1773306001454,0,1,0.01806640625,-0.013671875,-0.97216796875,-0.30517578125,0.79345703125,0.6103515625,0,0,0,0.0,0.0,0.0,25.5,38,-33,-1994,-6,13,13,0.9724319383197503,1.046534924284805
elevator-001,1773306001487,2026-03-12 17:00:01.487,1773306001478,9,1,0.0185546875,-0.01513671875,-0.97314453125,-0.06103515625,0.79345703125,0.67138671875,0,0,0,0.0,0.0,0.0,25.69,38,-33,-1994,-6,13,13,0.9734390969056674,1.0411817693623036
elevator-001,1773306001509,2026-03-12 17:00:01.509,1773306001503,6,1,0.01904296875,-0.0146484375,-0.970703125,-0.18310546875,0.732421875,0.67138671875,0,0,0,0.0,0.0,0.0,25.69,38,-33,-1994,-6,13,13,0.9710003956048476,1.0103116062772735
elevator-001,1773306001531,2026-03-12 17:00:01.531,1773306001528,3,1,0.01953125,-0.01318359375,-0.9697265625,-0.1220703125,0.67138671875,0.732421875,0,0,0,0.0,0.0,0.0,25.88,38,-33,-1994,-6,13,13,0.970012826146538,1.0010509928501419
elevator-001,1773306001554,2026-03-12 17:00:01.554,1773306001554,0,1,0.01806640625,-0.01171875,-0.97265625,-0.244140625,0.732421875,0.732421875,0,0,0,0.0,0.0,0.0,25.75,38,-33,-1994,-6,13,13,0.9728946010747593,1.0641843123878598
elevator-001,1773306001588,2026-03-12 17:00:01.588,1773306001578,10,1,0.01953125,-0.01220703125,-0.970703125,-0.18310546875,0.67138671875,0.79345703125,0,0,0,0.0,0.0,0.0,25.88,38,-33,-1994,-6,13,13,0.9709763324732826,1.055396512804601
elevator-001,1773306001610,2026-03-12 17:00:01.610,1773306001603,7,1,0.01904296875,-0.01220703125,-0.9697265625,-0.1220703125,0.6103515625,0.79345703125,0,0,0,0.0,0.0,0.0,26.13,38,-33,-1994,-6,13,13,0.9699903361832108,1.0084662867345158
elevator-001,1773306001634,2026-03-12 17:00:01.634,1773306001629,5,1,0.01611328125,-0.0126953125,-0.9697265625,-0.30517578125,0.732421875,0.79345703125,0,0,0,0.0,0.0,0.0,25.69,38,-33,-1994,-6,13,13,0.9699435111439123,1.1221176947540428
elevator-001,1773306001658,2026-03-12 17:00:01.658,1773306001653,5,1,0.01806640625,-0.01123046875,-0.97021484375,-0.244140625,0.732421875,0.67138671875,0,0,0,0.0,0.0,0.0,25.82,38,-33,-1994,-6,13,13,0.9704480210170824,1.0231356576074346
elevator-001,1773306001680,2026-03-12 17:00:01.680,1773306001678,2,1,0.01708984375,-0.01025390625,-0.97119140625,-0.244140625,0.732421875,0.67138671875,0,0,0,0.0,0.0,0.0,25.88,38,-33,-1994,-6,13,13,0.9713958785822779,1.0231356576074346
elevator-001,1773306001712,2026-03-12 17:00:01.712,1773306001704,8,1,0.01708984375,-0.01513671875,-0.97021484375,-0.3662109375,0.732421875,0.732421875,0,0,0,0.0,0.0,0.0,25.88,38,-33,-1994,-6,13,13,0.9704833981304126,1.0986328125
elevator-001,1773306001734,2026-03-12 17:00:01.734,1773306001729,5,1,0.0185546875,-0.01416015625,-0.9697265625,-0.18310546875,0.8544921875,0.67138671875,0,0,0,0.0,0.0,0.0,25.82,38,-33,-1994,-6,13,13,0.9700074187712759,1.1020184378215203
elevator-001,1773306001757,2026-03-12 17:00:01.757,1773306001753,4,1,0.0205078125,-0.013671875,-0.97607421875,-0.244140625,0.732421875,0.732421875,0,0,0,0.0,0.0,0.0,25.88,38,-33,-1994,-6,13,13,0.9763853599107135,1.0641843123878598
elevator-001,1773306001779,2026-03-12 17:00:01.779,1773306001779,0,1,0.017578125,-0.01416015625,-0.97314453125,-0.30517578125,0.6103515625,0.79345703125,0,0,0,0.0,0.0,0.0,25.75,38,-33,-1994,-6,13,13,0.9734062765388983,1.046534924284805
elevator-001,1773306001811,2026-03-12 17:00:01.811,1773306001803,8,1,0.01953125,-0.01123046875,-0.97119140625,-0.1220703125,0.67138671875,0.8544921875,0,0,0,0.0,0.0,0.0,25.88,38,-33,-1994,-6,13,13,0.971452696083942,1.0935347208965402
elevator-001,1773306001833,2026-03-12 17:00:01.833,1773306001829,4,1,0.01953125,-0.013671875,-0.9716796875,-0.3662109375,0.79345703125,0.67138671875,0,0,0,0.0,0.0,0.0,25.69,38,-33,-1994,-6,13,13,0.9719721215100131,1.1020184378215203
elevator-001,1773306001855,2026-03-12 17:00:01.855,1773306001853,2,1,0.01708984375,-0.01318359375,-0.9716796875,-0.18310546875,0.67138671875,0.79345703125,0,0,0,0.0,0.0,0.0,25.69,38,-33,-1994,-6,13,13,0.9719193819467035,1.055396512804601
elevator-001,1773306001888,2026-03-12 17:00:01.888,1773306001879,9,1,0.0185546875,-0.013671875,-0.97314453125,-0.244140625,0.79345703125,0.79345703125,0,0,0,0.0,0.0,0.0,25.69,38,-33,-1994,-6,13,13,0.9734174208919936,1.1483696119523181
elevator-001,1773306001910,2026-03-12 17:00:01.910,1773306001904,6,1,0.01953125,-0.01220703125,-0.9716796875,-0.06103515625,0.732421875,0.6103515625,0,0,0,0.0,0.0,0.0,25.88,38,-33,-1994,-6,13,13,0.9719526204700508,0.9553513087462481
elevator-001,1773306001932,2026-03-12 17:00:01.932,1773306001929,3,1,0.01708984375,-0.01171875,-0.97216796875,-0.1220703125,0.732421875,0.79345703125,0,0,0,0.0,0.0,0.0,25.63,38,-33,-1994,-6,13,13,0.972388786095594,1.0867000619363316
elevator-001,1773306001954,2026-03-12 17:00:01.954,1773306001954,0,1,0.0185546875,-0.01171875,-0.97412109375,-0.3662109375,0.732421875,0.732421875,0,0,0,0.0,0.0,0.0,25.88,38,-33,-1994,-6,13,13,0.9743682624236493,1.0986328125
elevator-001,1773306001987,2026-03-12 17:00:01.987,1773306001979,8,1,0.01611328125,-0.01220703125,-0.9716796875,-0.244140625,0.67138671875,0.67138671875,0,0,0,0.0,0.0,0.0,25.69,38,-33,-1994,-6,13,13,0.9718899446669246,0.9803697756475226
elevator-001,1773306002009,2026-03-12 17:00:02.009,1773306002004,5,1,0.017578125,-0.0126953125,-0.9736328125,-0.30517578125,0.732421875,0.79345703125,0,0,0,0.0,0.0,0.0,25.69,38,-33,-1994,-6,13,13,0.9738742295669643,1.1221176947540428
elevator-001,1773306002031,2026-03-12 17:00:02.031,1773306002029,2,1,0.0185546875,-0.01171875,-0.97265625,-0.06103515625,0.6103515625,0.67138671875,0,0,0,0.0,0.0,0.0,25.75,38,-33,-1994,-6,13,13,0.9729037908209874,0.9094033462982996
elevator-001,1773306002054,2026-03-12 17:00:02.054,1773306002054,0,1,0.017578125,-0.013671875,-0.9716796875,0.0,0.8544921875,0.6103515625,0,0,0,0.0,0.0,0.0,25.75,38,-33,-1994,-6,13,13,0.9719348361616785,1.0500885335745394
elevator-001,1773306002086,2026-03-12 17:00:02.086,1773306002078,8,1,0.01904296875,-0.01123046875,-0.97265625,-0.18310546875,0.732421875,0.8544921875,0,0,0,0.0,0.0,0.0,26.0,38,-33,-1994,-6,13,13,0.9729074666951738,1.1402308161785526
elevator-001,1773306002109,2026-03-12 17:00:02.109,1773306002103,6,1,0.01904296875,-0.01123046875,-0.97412109375,-0.30517578125,0.91552734375,0.8544921875,0,0,0,0.0,0.0,0.0,25.69,38,-33,-1994,-6,13,13,0.9743719327730322,1.2889838917201462
elevator-001,1773306002131,2026-03-12 17:00:02.131,1773306002128,3,1,0.01904296875,-0.01416015625,-0.97509765625,-0.3662109375,0.8544921875,0.732421875,0,0,0,0.0,0.0,0.0,26.0,38,-33,-1994,-6,13,13,0.9753863767287716,1.1835155901895333
elevator-001,1773306002154,2026-03-12 17:00:02.154,1773306002153,1,1,0.01904296875,-0.01171875,-0.96875,-0.3662109375,0.79345703125,0.732421875,0,0,0,0.0,0.0,0.0,25.82,38,-33,-1994,-6,13,13,0.9690080114531437,1.1402308161785526
elevator-001,1773306002187,2026-03-12 17:00:02.187,1773306002178,9,1,0.01953125,-0.01513671875,-0.97216796875,-0.18310546875,0.8544921875,0.8544921875,0,0,0,0.0,0.0,0.0,25.88,38,-33,-1994,-6,13,13,0.9724819532744965,1.222228051422167
elevator-001,1773306002209,2026-03-12 17:00:02.209,1773306002203,6,1,0.01904296875,-0.0126953125,-0.9716796875,-0.06103515625,0.6103515625,0.67138671875,0,0,0,0.0,0.0,0.0,25.69,38,-33,-1994,-6,13,13,0.9719491862841307,0.9094033462982996
elevator-001,1773306002231,2026-03-12 17:00:02.231,1773306002228,3,1,0.0166015625,-0.01171875,-0.966796875,-0.06103515625,0.732421875,0.67138671875,0,0,0,0.0,0.0,0.0,25.88,38,-33,-1994,-6,13,13,0.9670104128130005,0.9954532733337458
elevator-001,1773306002259,2026-03-12 17:00:02.259,1773306002257,2,1,0.0185546875,-0.01123046875,-0.97216796875,-0.30517578125,0.67138671875,0.732421875,0,0,0,0.0,0.0,0.0,26.0,38,-33,-1994,-6,13,13,0.9724098720807335,1.0393912576859377
elevator-001,1773306002281,2026-03-12 17:00:02.281,1773306002279,2,1,0.01806640625,-0.01220703125,-0.970703125,-0.1220703125,0.6103515625,0.67138671875,0,0,0,0.0,0.0,0.0,25.88,38,-33,-1994,-6,13,13,0.9709479715883309,0.91552734375
elevator-001,1773306002304,2026-03-12 17:00:02.304,1773306002304,0,1,0.0185546875,-0.01220703125,-0.970703125,-0.30517578125,0.732421875,0.79345703125,0,0,0,0.0,0.0,0.0,25.82,38,-33,-1994,-6,13,13,0.9709571797586786,1.1221176947540428
elevator-001,1773306002337,2026-03-12 17:00:02.337,1773306002329,8,1,0.02001953125,-0.0126953125,-0.96923828125,-0.18310546875,0.79345703125,0.79345703125,0,0,0,0.0,0.0,0.0,25.75,38,-33,-1994,-6,13,13,0.9695281318411532,1.1369589849973851
elevator-001,1773306002359,2026-03-12 17:00:02.359,1773306002353,6,1,0.0185546875,-0.01123046875,-0.97314453125,-0.06103515625,0.54931640625,0.67138671875,0,0,0,0.0,0.0,0.0,25.88,38,-33,-1994,-6,13,13,0.9733861918880654,0.8696171172348027
elevator-001,1773306002382,2026-03-12 17:00:02.382,1773306002378,4,1,0.0185546875,-0.01220703125,-0.97265625,-0.18310546875,0.67138671875,0.732421875,0,0,0,0.0,0.0,0.0,25.88,38,-33,-1994,-6,13,13,0.9729097947416419,1.0103116062772735
elevator-001,1773306002404,2026-03-12 17:00:02.404,1773306002404,0,1,0.017578125,-0.0146484375,-0.9736328125,-0.06103515625,0.54931640625,0.732421875,0,0,0,0.0,0.0,0.0,25.75,38,-33,-1994,-6,13,13,0.9739016484103347,0.9175595934065496
elevator-001,1773306002436,2026-03-12 17:00:02.436,1773306002428,8,1,0.02001953125,-0.013671875,-0.97265625,-0.18310546875,0.6103515625,0.67138671875,0,0,0,0.0,0.0,0.0,25.75,38,-33,-1994,-6,13,13,0.9729583148632566,0.925643975103949
elevator-001,1773306002459,2026-03-12 17:00:02.459,1773306002453,6,1,0.0205078125,-0.01416015625,-0.970703125,-0.18310546875,0.79345703125,0.79345703125,0,0,0,0.0,0.0,0.0,25.82,38,-33,-1994,-6,13,13,0.9710229849407918,1.1369589849973851
elevator-001,1773306002482,2026-03-12 17:00:02.482,1773306002478,4,1,0.017578125,-0.015625,-0.97412109375,-0.244140625,0.67138671875,0.79345703125,0,0,0,0.0,0.0,0.0,25.75,38,-33,-1994,-6,13,13,0.9744049652953396,1.0676791799643495
elevator-001,1773306002506,2026-03-12 17:00:02.506,1773306002503,3,1,0.021484375,-0.01416015625,-0.97216796875,-0.06103515625,0.8544921875,0.67138671875,0,0,0,0.0,0.0,0.0,25.63,38,-33,-1994,-6,13,13,0.972508430738606,1.0884127502518925
elevator-001,1773306002539,2026-03-12 17:00:02.539,1773306002529,10,1,0.01611328125,-0.01318359375,-0.974609375,-0.18310546875,0.67138671875,0.732421875,0,0,0,0.0,0.0,0.0,25.75,38,-33,-1994,-6,13,13,0.9748317182030432,1.0103116062772735
elevator-001,1773306002561,2026-03-12 17:00:02.561,1773306002554,7,1,0.01708984375,-0.01123046875,-0.97265625,-0.1220703125,0.79345703125,0.67138671875,0,0,0,0.0,0.0,0.0,25.75,38,-33,-1994,-6,13,13,0.9728711974623396,1.046534924284805
elevator-001,1773306002583,2026-03-12 17:00:02.583,1773306002579,4,1,0.02001953125,-0.0146484375,-0.9736328125,-0.18310546875,0.732421875,0.732421875,0,0,0,0.0,0.0,0.0,25.56,38,-33,-1994,-6,13,13,0.9739487727438858,1.0518608361580863
elevator-001,1773306002606,2026-03-12 17:00:02.606,1773306002603,3,1,0.017578125,-0.013671875,-0.97216796875,-0.30517578125,0.67138671875,0.732421875,0,0,0,0.0,0.0,0.0,25.69,38,-33,-1994,-6,13,13,0.9724229892942845,1.0393912576859377
elevator-001,1773306002639,2026-03-12 17:00:02.639,1773306002629,10,1,0.017578125,-0.01416015625,-0.9716796875,-0.18310546875,0.79345703125,0.79345703125,0,0,0,0.0,0.0,0.0,25.75,38,-33,-1994,-6,13,13,0.9719418272734421,1.1369589849973851
elevator-001,1773306002661,2026-03-12 17:00:02.661,1773306002653,8,1,0.017578125,-0.01123046875,-0.9716796875,-0.1220703125,0.79345703125,0.732421875,0,0,0,0.0,0.0,0.0,25.75,38,-33,-1994,-6,13,13,0.971903559519646,1.0867000619363316
elevator-001,1773306002684,2026-03-12 17:00:02.684,1773306002678,6,1,0.01904296875,-0.01416015625,-0.96923828125,-0.1220703125,0.79345703125,0.732421875,0,0,0,0.0,0.0,0.0,26.0,38,-33,-1994,-6,13,13,0.9695287466208993,1.0867000619363316
elevator-001,1773306002706,2026-03-12 17:00:02.706,1773306002703,3,1,0.01904296875,-0.01416015625,-0.9736328125,-0.1220703125,0.48828125,0.67138671875,0,0,0,0.0,0.0,0.0,26.07,38,-33,-1994,-6,13,13,0.9739219672337708,0.8390946707072461
elevator-001,1773306002738,2026-03-12 17:00:02.738,1773306002729,9,1,0.01953125,-0.01220703125,-0.97021484375,-0.18310546875,0.79345703125,0.732421875,0,0,0,0.0,0.0,0.0,25.82,38,-33,-1994,-6,13,13,0.9704881886820353,1.0952367214920875
elevator-001,1773306002760,2026-03-12 17:00:02.760,1773306002753,7,1,0.017578125,-0.01318359375,-0.9716796875,-0.06103515625,0.732421875,0.79345703125,0,0,0,0.0,0.0,0.0,26.07,38,-33,-1994,-6,13,13,0.9719280903044105,1.081545724284018
elevator-001,1773306002782,2026-03-12 17:00:02.782,1773306002779,3,1,0.01708984375,-0.01611328125,-0.96923828125,-0.18310546875,0.79345703125,0.79345703125,0,0,0,0.0,0.0,0.0,25.37,38,-33,-1994,-6,13,13,0.9695228447192439,1.1369589849973851
elevator-001,1773306002804,2026-03-12 17:00:02.804,1773306002803,1,1,0.01904296875,-0.01025390625,-0.9697265625,-0.18310546875,0.6103515625,0.732421875,0,0,0,0.0,0.0,0.0,25.75,38,-33,-1994,-6,13,13,0.969967722798168,0.9708235913444132
elevator-001,1773306002837,2026-03-12 17:00:02.837,1773306002828,9,1,0.01806640625,-0.01318359375,-0.970703125,-0.30517578125,0.732421875,0.67138671875,0,0,0,0.0,0.0,0.0,25.69,38,-33,-1994,-6,13,13,0.9709607402278018,1.0393912576859377
elevator-001,1773306002859,2026-03-12 17:00:02.859,1773306002853,6,1,0.017578125,-0.01318359375,-0.9716796875,-0.1220703125,0.54931640625,0.67138671875,0,0,0,0.0,0.0,0.0,25.88,38,-33,-1994,-6,13,13,0.9719280903044105,0.8760192928715408
elevator-001,1773306002881,2026-03-12 17:00:02.881,1773306002879,2,1,0.02099609375,-0.0126953125,-0.97216796875,-0.1220703125,0.67138671875,0.67138671875,0,0,0,0.0,0.0,0.0,25.88,38,-33,-1994,-6,13,13,0.9724775402937245,0.9572990198582838
elevator-001,1773306002903,2026-03-12 17:00:02.903,1773306002903,0,1,0.017578125,-0.01318359375,-0.97265625,-0.244140625,0.732421875,0.732421875,0,0,0,0.0,0.0,0.0,25.75,38,-33,-1994,-6,13,13,0.9729044034676496,1.0641843123878598
elevator-001,1773306002936,2026-03-12 17:00:02.936,1773306002929,7,1,0.017578125,-0.013671875,-0.97216796875,-0.18310546875,0.732421875,0.732421875,0,0,0,0.0,0.0,0.0,25.88,38,-33,-1994,-6,13,13,0.9724229892942845,1.0518608361580863
elevator-001,1773306002957,2026-03-12 17:00:02.957,1773306002953,4,1,0.01708984375,-0.01171875,-0.97412109375,-0.18310546875,0.6103515625,0.732421875,0,0,0,0.0,0.0,0.0,25.69,38,-33,-1994,-6,13,13,0.9743414684542879,0.9708235913444132
elevator-001,1773306002980,2026-03-12 17:00:02.980,1773306002978,2,1,0.02099609375,-0.01123046875,-0.97216796875,-0.18310546875,0.6103515625,0.732421875,0,0,0,0.0,0.0,0.0,25.75,38,-33,-1994,-6,13,13,0.9724595204143999,0.9708235913444132
elevator-001,1773306003012,2026-03-12 17:00:03.012,1773306003003,9,1,0.0185546875,-0.0126953125,-0.96923828125,-0.30517578125,0.79345703125,0.6103515625,0,0,0,0.0,0.0,0.0,25.88,38,-33,-1994,-6,13,13,0.9694989908340026,1.046534924284805
elevator-001,1773306003035,2026-03-12 17:00:03.035,1773306003029,6,1,0.0205078125,-0.01708984375,-0.9716796875,-0.06103515625,0.79345703125,0.732421875,0,0,0,0.0,0.0,0.0,25.63,38,-33,-1994,-6,13,13,0.9720463200038526,1.081545724284018
elevator-001,1773306003059,2026-03-12 17:00:03.059,1773306003053,6,1,0.0185546875,-0.01318359375,-0.96728515625,-0.244140625,0.67138671875,0.732421875,0,0,0,0.0,0.0,0.0,25.75,38,-33,-1994,-6,13,13,0.9675529221050261,1.0231356576074346
elevator-001,1773306003081,2026-03-12 17:00:03.081,1773306003078,3,1,0.017578125,-0.01220703125,-0.97021484375,-0.18310546875,0.8544921875,0.732421875,0,0,0,0.0,0.0,0.0,25.69,38,-33,-1994,-6,13,13,0.9704508463200447,1.1402308161785526
elevator-001,1773306003114,2026-03-12 17:00:03.114,1773306003105,9,1,0.02001953125,-0.01123046875,-0.9677734375,-0.30517578125,0.67138671875,0.732421875,0,0,0,0.0,0.0,0.0,25.63,38,-33,-1994,-6,13,13,0.9680456246429612,1.0393912576859377
elevator-001,1773306003137,2026-03-12 17:00:03.137,1773306003129,8,1,0.02001953125,-0.01416015625,-0.97021484375,-0.244140625,0.6103515625,0.67138671875,0,0,0,0.0,0.0,0.0,25.88,38,-33,-1994,-6,13,13,0.9705246697994498,0.9396242870080964
elevator-001,1773306003159,2026-03-12 17:00:03.159,1773306003153,6,1,0.02001953125,-0.0126953125,-0.97265625,-0.18310546875,0.732421875,0.732421875,0,0,0,0.0,0.0,0.0,25.88,38,-33,-1994,-6,13,13,0.9729450823427831,1.0518608361580863
elevator-001,1773306003181,2026-03-12 17:00:03.181,1773306003179,2,1,0.01708984375,-0.013671875,-0.9716796875,-0.244140625,0.67138671875,0.732421875,0,0,0,0.0,0.0,0.0,25.88,38,-33,-1994,-6,13,13,0.9719261278644137,1.0231356576074346
elevator-001,1773306003204,2026-03-12 17:00:03.204,1773306003204,0,1,0.0205078125,-0.01318359375,-0.9716796875,-0.06103515625,0.8544921875,0.79345703125,0,0,0,0.0,0.0,0.0,26.0,38,-33,-1994,-6,13,13,0.9719854899214277,1.167671293317199
elevator-001,1773306003237,2026-03-12 17:00:03.237,1773306003228,9,1,0.01806640625,-0.0126953125,-0.97314453125,-0.3662109375,0.91552734375,0.6103515625,0,0,0,0.0,0.0,0.0,25.88,38,-33,-1994,-6,13,13,0.9733950095906825,1.15966796875
elevator-001,1773306003260,2026-03-12 17:00:03.260,1773306003253,7,1,0.01806640625,-0.01171875,-0.97412109375,-0.30517578125,0.79345703125,0.79345703125,0,0,0,0.0,0.0,0.0,25.88,38,-33,-1994,-6,13,13,0.9743590864897032,1.1628759084019562
elevator-001,1773306003283,2026-03-12 17:00:03.283,1773306003278,5,1,0.017578125,-0.0126953125,-0.9697265625,-0.18310546875,0.67138671875,0.732421875,0,0,0,0.0,0.0,0.0,25.88,38,-33,-1994,-6,13,13,0.969968951800033,1.0103116062772735
elevator-001,1773306003305,2026-03-12 17:00:03.305,1773306003303,2,1,0.02001953125,-0.013671875,-0.97119140625,-0.18310546875,0.67138671875,0.8544921875,0,0,0,0.0,0.0,0.0,26.0,38,-33,-1994,-6,13,13,0.9714939265746019,1.1020184378215203
elevator-001,1773306003338,2026-03-12 17:00:03.338,1773306003328,10,1,0.01904296875,-0.0166015625,-0.97265625,-0.30517578125,0.6103515625,0.732421875,0,0,0,0.0,0.0,0.0,25.56,38,-33,-1994,-6,13,13,0.9729842892875081,1.0010509928501419
elevator-001,1773306003360,2026-03-12 17:00:03.360,1773306003354,6,1,0.017578125,-0.01416015625,-0.9716796875,-0.18310546875,0.8544921875,0.67138671875,0,0,0,0.0,0.0,0.0,26.0,38,-33,-1994,-6,13,13,0.9719418272734421,1.1020184378215203
elevator-001,1773306003382,2026-03-12 17:00:03.382,1773306003378,4,1,0.01708984375,-0.01171875,-0.97021484375,-0.18310546875,0.6103515625,0.732421875,0,0,0,0.0,0.0,0.0,26.0,38,-33,-1994,-6,13,13,0.9704361055184411,0.9708235913444132
elevator-001,1773306003415,2026-03-12 17:00:03.415,1773306003405,10,1,0.01708984375,-0.01318359375,-0.9736328125,-0.06103515625,0.732421875,0.732421875,0,0,0,0.0,0.0,0.0,25.82,38,-33,-1994,-6,13,13,0.973872026233542,1.03759765625
elevator-001,1773306003437,2026-03-12 17:00:03.437,1773306003428,9,1,0.017578125,-0.01318359375,-0.97119140625,-0.18310546875,0.67138671875,0.732421875,0,0,0,0.0,0.0,0.0,25.75,38,-33,-1994,-6,13,13,0.9714399339107556,1.0103116062772735
elevator-001,1773306003460,2026-03-12 17:00:03.460,1773306003453,7,1,0.01611328125,-0.01123046875,-0.97265625,-0.18310546875,0.67138671875,0.8544921875,0,0,0,0.0,0.0,0.0,26.0,38,-33,-1994,-6,13,13,0.972854532766872,1.1020184378215203
elevator-001,1773306003482,2026-03-12 17:00:03.482,1773306003478,4,1,0.0185546875,-0.0126953125,-0.9736328125,0.0,0.67138671875,0.732421875,0,0,0,0.0,0.0,0.0,25.82,38,-33,-1994,-6,13,13,0.9738923456750009,0.9935803586486637
elevator-001,1773306003505,2026-03-12 17:00:03.505,1773306003503,2,1,0.01904296875,-0.01318359375,-0.9716796875,-0.244140625,0.732421875,0.732421875,0,0,0,0.0,0.0,0.0,26.07,38,-33,-1994,-6,13,13,0.971955686697226,1.0641843123878598
elevator-001,1773306003537,2026-03-12 17:00:03.537,1773306003529,8,1,0.01806640625,-0.0107421875,-0.97412109375,-0.244140625,0.67138671875,0.67138671875,0,0,0,0.0,0.0,0.0,25.88,38,-33,-1994,-6,13,13,0.9743478305593806,0.9803697756475226
elevator-001,1773306003559,2026-03-12 17:00:03.559,1773306003553,6,1,0.0185546875,-0.0126953125,-0.97021484375,-0.30517578125,0.8544921875,0.732421875,0,0,0,0.0,0.0,0.0,25.69,38,-33,-1994,-6,13,13,0.9704752909891793,1.1660750228602783
elevator-001,1773306003582,2026-03-12 17:00:03.582,1773306003579,3,1,0.017578125,-0.01318359375,-0.970703125,-0.1220703125,0.67138671875,0.67138671875,0,0,0,0.0,0.0,0.0,26.0,38,-33,-1994,-6,13,13,0.9709517776426625,0.9572990198582838
elevator-001,1773306003614,2026-03-12 17:00:03.614,1773306003604,10,1,0.017578125,-0.0126953125,-0.96923828125,-0.06103515625,0.48828125,0.67138671875,0,0,0,0.0,0.0,0.0,25.69,38,-33,-1994,-6,13,13,0.9694807926299739,0.8324085508414218
elevator-001,1773306003637,2026-03-12 17:00:03.637,1773306003629,8,1,0.01708984375,-0.0146484375,-0.9697265625,-0.18310546875,0.732421875,0.8544921875,0,0,0,0.0,0.0,0.0,25.69,38,-33,-1994,-6,13,13,0.9699877553343945,1.1402308161785526
elevator-001,1773306003659,2026-03-12 17:00:03.659,1773306003656,3,1,0.02001953125,-0.01171875,-0.970703125,-0.244140625,0.67138671875,0.67138671875,0,0,0,0.0,0.0,0.0,25.88,38,-33,-1994,-6,13,13,0.9709802611885567,0.9803697756475226
elevator-001,1773306003682,2026-03-12 17:00:03.682,1773306003678,4,1,0.01806640625,-0.013671875,-0.96923828125,-0.30517578125,0.79345703125,0.79345703125,0,0,0,0.0,0.0,0.0,25.69,38,-33,-1994,-6,13,13,0.9695030484950833,1.1628759084019562
elevator-001,1773306003705,2026-03-12 17:00:03.705,1773306003704,1,1,0.0185546875,-0.01220703125,-0.97216796875,-0.18310546875,0.67138671875,0.67138671875,0,0,0,0.0,0.0,0.0,25.88,38,-33,-1994,-6,13,13,0.9724216408038553,0.9669787303317176
elevator-001,1773306003728,2026-03-12 17:00:03.728,1773306003728,0,1,0.0185546875,-0.009765625,-0.97119140625,-0.18310546875,0.67138671875,0.732421875,0,0,0,0.0,0.0,0.0,26.0,38,-33,-1994,-6,13,13,0.9714177224210581,1.0103116062772735
elevator-001,1773306003761,2026-03-12 17:00:03.761,1773306003753,8,1,0.017578125,-0.013671875,-0.97314453125,-0.3662109375,0.732421875,0.67138671875,0,0,0,0.0,0.0,0.0,25.88,38,-33,-1994,-6,13,13,0.9733992959450471,1.0589203840879804
elevator-001,1773306003784,2026-03-12 17:00:03.784,1773306003779,5,1,0.015625,-0.0126953125,-0.9716796875,-0.18310546875,0.54931640625,0.67138671875,0,0,0,0.0,0.0,0.0,25.88,38,-33,-1994,-6,13,13,0.9718882274647483,0.8865868558553436
elevator-001,1773306003806,2026-03-12 17:00:03.806,1773306003803,3,1,0.01904296875,-0.013671875,-0.97314453125,-0.1220703125,0.67138671875,0.67138671875,0,0,0,0.0,0.0,0.0,25.75,38,-33,-1994,-6,13,13,0.9734268506295742,0.9572990198582838
elevator-001,1773306003829,2026-03-12 17:00:03.829,1773306003829,0,1,0.017578125,-0.0126953125,-0.97412109375,-0.18310546875,0.732421875,0.79345703125,0,0,0,0.0,0.0,0.0,25.82,38,-33,-1994,-6,13,13,0.9743623898358785,1.0952367214920875
elevator-001,1773306003862,2026-03-12 17:00:03.862,1773306003853,9,1,0.01904296875,-0.01123046875,-0.97119140625,-0.18310546875,0.732421875,0.732421875,0,0,0,0.0,0.0,0.0,25.88,38,-33,-1994,-6,13,13,0.9714430017561559,1.0518608361580863
elevator-001,1773306003883,2026-03-12 17:00:03.883,1773306003878,5,1,0.02001953125,-0.01171875,-0.970703125,-0.244140625,0.732421875,0.732421875,0,0,0,0.0,0.0,0.0,25.75,38,-33,-1994,-6,13,13,0.9709802611885567,1.0641843123878598
elevator-001,1773306003908,2026-03-12 17:00:03.908,1773306003903,5,1,0.0185546875,-0.01220703125,-0.97314453125,-0.18310546875,0.67138671875,0.732421875,0,0,0,0.0,0.0,0.0,25.88,38,-33,-1994,-6,13,13,0.9733979488071378,1.0103116062772735
elevator-001,1773306003930,2026-03-12 17:00:03.930,1773306003929,1,1,0.0205078125,-0.015625,-0.974609375,-0.30517578125,0.732421875,0.732421875,0,0,0,0.0,0.0,0.0,25.63,38,-33,-1994,-6,13,13,0.9749503294201329,1.079822144345345
elevator-001,1773306003962,2026-03-12 17:00:03.962,1773306003954,8,1,0.017578125,-0.013671875,-0.97265625,-0.06103515625,0.732421875,0.732421875,0,0,0,0.0,0.0,0.0,25.69,38,-33,-1994,-6,13,13,0.9729111425554718,1.03759765625
elevator-001,1773306003985,2026-03-12 17:00:03.985,1773306003979,6,1,0.01806640625,-0.00927734375,-0.96826171875,0.06103515625,0.732421875,0.79345703125,0,0,0,0.0,0.0,0.0,25.37,38,-33,-1994,-6,13,13,0.9684746874020765,1.081545724284018
elevator-001,1773306004007,2026-03-12 17:00:04.007,1773306004003,4,1,0.01806640625,-0.013671875,-0.97265625,-0.1220703125,0.79345703125,0.79345703125,0,0,0,0.0,0.0,0.0,26.13,38,-33,-1994,-6,13,13,0.9729200870908505,1.1287379155826984
elevator-001,1773306004028,2026-03-12 17:00:04.028,1773306004028,0,1,0.0185546875,-0.0126953125,-0.974609375,-0.3662109375,0.732421875,0.67138671875,0,0,0,0.0,0.0,0.0,25.82,38,-33,-1994,-6,13,13,0.974868648190917,1.0589203840879804
elevator-001,1773306004061,2026-03-12 17:00:04.061,1773306004054,7,1,0.017578125,-0.0146484375,-0.9697265625,-0.1220703125,0.67138671875,0.732421875,0,0,0,0.0,0.0,0.0,26.07,38,-33,-1994,-6,13,13,0.9699964810337064,1.0010509928501419
elevator-001,1773306004084,2026-03-12 17:00:04.084,1773306004078,6,1,0.01904296875,-0.01611328125,-0.9736328125,-0.244140625,0.732421875,0.732421875,0,0,0,0.0,0.0,0.0,25.75,38,-33,-1994,-6,13,13,0.9739523222766684,1.0641843123878598
